{
  "rule_id": "CG0419",
  "fixture_type": "positive",
  "description": "IDVAR ends with SEQ and RELTYPE is null -- fires because RELTYPE must be populated",
  "datasets": {
    "RELREC": {
      "STUDYID": ["STUDY01", "STUDY01"],
      "USUBJID": ["STUDY01-001", "STUDY01-001"],
      "RDOMAIN": ["AE", "CM"],
      "IDVAR":   ["AESEQ", "CMSEQ"],
      "IDVARVAL": ["1", "2"],
      "RELTYPE": ["", ""]
    }
  },
  "expected_findings": {
    "CG0419": {
      "dataset": "RELREC",
      "min_findings": 2
    }
  }
}
