Authorities:
- Organization: CDISC
  Standards:
  - Name: SDTMIG
    References:
    - Citations:
      - Cited_Guidance: If TAETORD and/or EPOCH are added, then the values must be
          those at the start of the visit.
        Document: IG v3.4
        Item: Assumption 11
        Section: '5.5'
      Origin: SDTM and SDTMIG Conformance Rules
      Rule_Identifier:
        Id: CG0218
        Version: '1'
      Version: '2.0'
    Version: '3.4'
  - Name: SDTMIG
    References:
    - Citations:
      - Cited_Guidance: If TAETORD and/or EPOCH are added, then the values must be
          those at the start of the visit.It would be inappropriate to add the variables
          that support time points (--TPT, --TPTNUM, --ELTM, --TPTREF, and --RFTDTC),
          since the topic of this dataset is visits.
        Document: IG v3.2
        Item: Assumption 11
        Section: 5 SV
      Origin: SDTM and SDTMIG Conformance Rules
      Rule_Identifier:
        Id: CG0218
        Version: '1'
      Version: '2.0'
    Version: '3.2'
  - Name: SDTMIG
    References:
    - Citations:
      - Cited_Guidance: If TAETORD and/or EPOCH are added, then the values must be
          those at the start of the visit.It would be inappropriate to add the variables
          that support time points (--TPT, --TPTNUM, --ELTM, --TPTREF, and --RFTDTC),
          since the topic of this dataset is visits.
        Document: IG v3.3
        Item: Assumption 11
        Section: '5.5'
      Origin: SDTM and SDTMIG Conformance Rules
      Rule_Identifier:
        Id: CG0218
        Version: '1'
      Version: '2.0'
    Version: '3.3'
  - Name: TIG
    References:
    - Citations:
      - Cited_Guidance: If TAETORD and/or EPOCH are added, then the values must be
          those at the start of the visit.
        Document: TIG 1.0
        Item: Assumption 11
        Section: 2.8.10.25
      Origin: TIG Conformance Rules
      Rule_Identifier:
        Id: TIG0432
        Version: '1'
      Version: '1.0'
    Substandard: SDTM
    Version: '1.0'
Check:
  all:
  - name: EPOCH
    operator: exists
  - name: SESTDTC
    operator: date_less_than_or_equal_to
    value: SVSTDTC
  - name: SVSTDTC
    operator: date_less_than_or_equal_to
    value: SEENDTC
  - name: EPOCH
    operator: not_equal_to
    value: SE.EPOCH
Core:
  Id: CORE-000097
  Status: Published
  Version: '1'
Description: Raise an error when variable EPOCH values don't match between Subject
  Visits (SV) and Subject Elements (SE) datasets.
Executability: Partially Executable - Possible Overreporting
Match_Datasets:
- Keys: USUBJID
  Name: SE
Outcome:
  Message: EPOCH values don't match between Subject Visits (SV) and Subject Elements
    (SE) datasets.
Rule_Type: Record Data
Scope:
  Classes:
    Include: SPECIAL PURPOSE
  Domains:
    Include: SV
  Use_Case: INDH
Sensitivity: Record
herald:
  source: CDISC Library API
  catalogs:
  - SDTMIG 3.2
  - SDTMIG 3.3
  - SDTMIG 3.4
  fetched: '2026-04-20T13:03:50Z'
status: superseded
superseded_by: CG0218
