Authorities:
  - Organization: CDISC
    Standards:
      - Name: SDTMIG
        References:
          - Citations:
              - Cited_Guidance: The permissible Study Day variables (--DY, --STDY,
                  and --ENDY) describe the relative day of the observation starting
                  with the reference date as Day 1. They are determined by comparing
                  the date portion of the respective date/time variables (--DTC, --STDTC,
                  and --ENDTC) to the date portion of the Subject Reference Start
                  Date (RFSTDTC from the Demographics domain).
                Document: IG v3.4
                Section: 4.4.4
              - Cited_Guidance: All Study Day values are integers. Thus, to calculate
                  Study Day. --DY = (date portion of --DTC) - (date portion of RFSTDTC)
                  + 1 if --DTC is on or after RFSTDTC, --DY = (date portion of --DTC)
                  - (date portion of RFSTDTC) if --DTC precedes RFSTDTC. This algorithm
                  should be used across all domains.
                Document: IG v3.4
                Section: 4.4.4
            Origin: SDTM and SDTMIG Conformance Rules
            Rule_Identifier:
              Id: CG0221
              Version: '1'
            Version: '2.0'
        Version: '3.4'
      - Name: SDTMIG
        References:
          - Citations:
              - Cited_Guidance: '[The permissible Study Day variables (--DY, --STDY,
                  and --ENDY) describe the relative day of the observation starting
                  with the reference date as Day 1. They are determined by comparing
                  the date portion of the respective date/time variables (--DTC, --STDTC,
                  and --ENDTC) to the date portion of the Subject Reference Start
                  Date (RFSTDTC from the Demographics domain).][All Study Day values
                  are integers. Thus, to calculate Study Day: --DY = (date portion
                  of --DTC) - (date portion of RFSTDTC) + 1 if --DTC is on or after
                  RFSTDTC, --DY = (date portion of --DTC) - (date portion of RFSTDTC)
                  if --DTC precedes RFSTDTC. This algorithm should be used across
                  all domains.]'
                Document: IG v3.2
                Section: 4.1.4
            Origin: SDTM and SDTMIG Conformance Rules
            Rule_Identifier:
              Id: CG0221
              Version: '1'
            Version: '2.0'
        Version: '3.2'
      - Name: SDTMIG
        References:
          - Citations:
              - Cited_Guidance: '[The permissible Study Day variables (--DY, --STDY,
                  and --ENDY) describe the relative day of the observation starting
                  with the reference date as Day 1. They are determined by comparing
                  the date portion of the respective date/time variables (--DTC, --STDTC,
                  and --ENDTC) to the date portion of the Subject Reference Start
                  Date (RFSTDTC from the Demographics domain).][All Study Day values
                  are integers. Thus, to calculate Study Day: --DY = (date portion
                  of --DTC) - (date portion of RFSTDTC) + 1 if --DTC is on or after
                  RFSTDTC, --DY = (date portion of --DTC) - (date portion of RFSTDTC)
                  if --DTC precedes RFSTDTC. This algorithm should be used across
                  all domains.]'
                Document: IG v3.3
                Section: 4.4.4
            Origin: SDTM and SDTMIG Conformance Rules
            Rule_Identifier:
              Id: CG0221
              Version: '1'
            Version: '2.0'
        Version: '3.3'
      - Name: TIG
        References:
          - Citations:
              - Cited_Guidance: 'The permissible Study Day variables (--DY, --STDY,
                  and --ENDY) describe the relative day of the observation starting
                  with the reference date as Day 1. They are determined by comparing
                  the date portion of the respective date/time variables (--DTC, --STDTC,
                  and --ENDTC) to the date portion of the Subject Reference Start
                  Date (RFSTDTC from the Demographics domain).][All Study Day values
                  are integers. Thus, to calculate Study Day: --DY = (date portion
                  of --DTC) - (date portion of RFSTDTC) + 1 if --DTC is on or after
                  RFSTDTC, --DY = (date portion of --DTC) - (date portion of RFSTDTC)
                  if --DTC precedes RFSTDTC. This algorithm should be used across
                  all domains.'
                Document: TIG 1.0
                Item: Num 1
                Section: 2.8.7.6
            Origin: TIG Conformance Rules
            Rule_Identifier:
              Id: TIG0435
              Version: '1'
            Version: '1.0'
        Substandard: SDTM
        Version: '1.0'
Check:
  any:
    - all:
        - name: --STDTC
          operator: is_incomplete_date
        - name: --STDY
          operator: non_empty
    - all:
        - name: RFSTDTC
          operator: is_incomplete_date
        - name: --STDY
          operator: non_empty
Core:
  Id: CORE-000138
  Status: Published
  Version: '1'
Description: If --STDTC or DM.RFSTDTC does not contain a complete values, --STDY must
  be null.
Executability: Fully Executable
Match_Datasets:
  - Keys:
      - USUBJID
    Name: DM
Outcome:
  Message: --STDY is not null when either --STDTC or DM.RFSTDTC do not contain complete
    values in their date portion
  Output_Variables:
    - --STDY
    - --STDTC
    - RFSTDTC
Rule_Type: Record Data
Scope:
  Classes:
    Include:
      - ALL
  Domains:
    Include:
      - ALL
  Use_Case: INDH
Sensitivity: Record
herald:
  source: CDISC Library API
  catalogs:
    - SDTMIG 3.2
    - SDTMIG 3.3
    - SDTMIG 3.4
  fetched: '2026-04-20T13:03:50Z'

