{
  "rule_id": "183",
  "fixture_type": "positive",
  "datasets": {
    "ADVS": {
      "BNRIND": ["X", "Y"],
      "ANRIND": ["X", "Y"],
      "ABLFL": ["Y", "N"],
      "USUBJID": ["G1", "G1"],
      "PARAMCD": ["G1", "G1"]
    }
  },
  "expected": {
    "fires": true,
    "rows": 2
  },
  "notes": "auto-seeded; 1 leaf op(s): base_not_equal_abl_row",
  "authored": "auto-seed@4",
  "spec": {
    "class_map": {
      "ADVS": "BASIC DATA STRUCTURE"
    }
  }
}
