{"id":"1","authority":"CDISC","standard":"ADaM-IG","standard_ver":"1.0,1.1,1.2,1.3","severity":"Medium","message":"ADSL dataset does not exist","source_document":"CDISC ADaM Conformance Rules v5.0","source_url":"https://www.cdisc.org/standards/foundational/adam/adam-conformance-rules-v5-0","source_version":"1","content_hash":"ca48e3d55aa4b3594407adaf3cb6c473fb0964a4654c6e5e428dfccfd6b8dd43","license":"CC-BY-4.0","p21_id_equivalent":null,"fetched_at":null,"scope":{"classes":"SUBJECT LEVEL ANALYSIS DATASET","domains":[],"exclude_domains":[],"submission":true},"check_tree":{"operator":"not_exists","name":"ADSL"}}
{"id":"10","authority":"CDISC","standard":"ADaM-IG","standard_ver":"1.0,1.1,1.2,1.3","severity":"Medium","message":"A variable with a suffix of FL is equal to Y and a variable with the same root and a suffix of FN is not equal to 1","source_document":"CDISC ADaM Conformance Rules v5.0","source_url":"https://www.cdisc.org/standards/foundational/adam/adam-conformance-rules-v5-0","source_version":"1","content_hash":"ba2b20c2cb9177a251aa42c3465b4108677f346f937735087b7020148155043c","license":"CC-BY-4.0","p21_id_equivalent":null,"fetched_at":null,"scope":{"classes":"ALL","domains":[],"exclude_domains":[]},"check_tree":{"narrative":"","condition_success":"","condition_failure":"Variable with a suffix of FL is present and equal to Y, and a variable with the same root and a suffix of FN is present"}}
{"id":"102","authority":"CDISC","standard":"ADaM-IG","standard_ver":"1.0,1.1,1.2,1.3","severity":"Medium","message":"For every unique xx value of APERIOD, there is not an ADSL variable TRTxxP","source_document":"CDISC ADaM Conformance Rules v5.0","source_url":"https://www.cdisc.org/standards/foundational/adam/adam-conformance-rules-v5-0","source_version":"1","content_hash":"ddfb4fe19a564a40829d8b0f083c734fc1cfd477878bdaa4747306e5f9797b66","license":"CC-BY-4.0","p21_id_equivalent":null,"fetched_at":null,"scope":{"classes":"ALL","domains":[],"exclude_domains":[]},"check_tree":{"operator":"any_index_missing_ref_var","name":"APERIOD","reference_dataset":"ADSL","name_template":"TRTxxP","placeholder":"xx"}}
{"id":"103","authority":"CDISC","standard":"ADaM-IG","standard_ver":"1.0,1.1,1.2,1.3","severity":"Medium","message":"For every unique xx value of APERIOD, there is not an ADSL variable TRxxSDT","source_document":"CDISC ADaM Conformance Rules v5.0","source_url":"https://www.cdisc.org/standards/foundational/adam/adam-conformance-rules-v5-0","source_version":"1","content_hash":"b1bbde971b4e9e9d3d5363ac3d1a2644dfe72425116f3170341017b3780edee4","license":"CC-BY-4.0","p21_id_equivalent":null,"fetched_at":null,"scope":{"classes":"ALL","domains":[],"exclude_domains":[]},"check_tree":{"operator":"any_index_missing_ref_var","name":"APERIOD","reference_dataset":"ADSL","name_template":"TRxxSDT","placeholder":"xx"}}
{"id":"104","authority":"CDISC","standard":"ADaM-IG","standard_ver":"1.0,1.1,1.2,1.3","severity":"Medium","message":"For every unique xx value of APERIOD, there is not an ADSL variable TRxxEDT","source_document":"CDISC ADaM Conformance Rules v5.0","source_url":"https://www.cdisc.org/standards/foundational/adam/adam-conformance-rules-v5-0","source_version":"1","content_hash":"a608a3bb7899316af6138efd7eb9ecba21f39c08d3d1e71236fc1a2d16d6f36a","license":"CC-BY-4.0","p21_id_equivalent":null,"fetched_at":null,"scope":{"classes":"ALL","domains":[],"exclude_domains":[]},"check_tree":{"operator":"any_index_missing_ref_var","name":"APERIOD","reference_dataset":"ADSL","name_template":"TRxxEDT","placeholder":"xx"}}
{"id":"105","authority":"CDISC","standard":"ADaM-IG","standard_ver":"1.0","severity":"Medium","message":"There is more than one value of APERIODC for a given value of APERIOD","source_document":"CDISC ADaM Conformance Rules v5.0","source_url":"https://www.cdisc.org/standards/foundational/adam/adam-conformance-rules-v5-0","source_version":"1","content_hash":"f6b20c21c47cb516d51e8fd578ba317d7ae2e560b75815cbdf2ac0d40b6d34c3","license":"CC-BY-4.0","p21_id_equivalent":null,"fetched_at":null,"scope":{"classes":"ALL","domains":[],"exclude_domains":[]},"check_tree":{"all":[{"name":"APERIOD","operator":"is_not_unique_relationship","value":{"related_name":"APERIODC"}}]}}
{"id":"106","authority":"CDISC","standard":"ADaM-IG","standard_ver":"1.0","severity":"Medium","message":"There is more than one value of APERIOD for a given value of APERIODC","source_document":"CDISC ADaM Conformance Rules v5.0","source_url":"https://www.cdisc.org/standards/foundational/adam/adam-conformance-rules-v5-0","source_version":"1","content_hash":"2d0273e66713b42eadd8aa034001642d73ba7d11a460b21deb2433284e198bd9","license":"CC-BY-4.0","p21_id_equivalent":null,"fetched_at":null,"scope":{"classes":"ALL","domains":[],"exclude_domains":[]},"check_tree":{"all":[{"name":"APERIODC","operator":"is_not_unique_relationship","value":{"related_name":"APERIOD"}}]}}
{"id":"109","authority":"CDISC","standard":"ADaM-IG","standard_ver":"1.0","severity":"Medium","message":"Within a given value of PARAMCD, there is more than one value of AVISITN for a given value of AVISIT","source_document":"CDISC ADaM Conformance Rules v5.0","source_url":"https://www.cdisc.org/standards/foundational/adam/adam-conformance-rules-v5-0","source_version":"1","content_hash":"b78bc3b8a98cadd61312fa0acfab2eabc92c5104eac07c56c16d9b6e454a9cb1","license":"CC-BY-4.0","p21_id_equivalent":null,"fetched_at":null,"scope":{"classes":"BASIC DATA STRUCTURE","domains":[],"exclude_domains":[]},"check_tree":{"expand":"","all":[{"name":"AVISIT","operator":"is_not_unique_relationship","value":{"related_name":"AVISITN","group_by":"PARAMCD"}}]}}
{"id":"11","authority":"CDISC","standard":"ADaM-IG","standard_ver":"1.0,1.1,1.2,1.3","severity":"Medium","message":"A variable with a suffix of FL is equal to N and a variable with the same root and a suffix of FN is not equal to 0","source_document":"CDISC ADaM Conformance Rules v5.0","source_url":"https://www.cdisc.org/standards/foundational/adam/adam-conformance-rules-v5-0","source_version":"1","content_hash":"e8ac8a467bdbabdbd61b1b244497e59858923251526ca80ce6b381f3fcdd189b","license":"CC-BY-4.0","p21_id_equivalent":null,"fetched_at":null,"scope":{"classes":"ALL","domains":[],"exclude_domains":[]},"check_tree":{"narrative":"","condition_success":"","condition_failure":"Variable with a suffix of FL is present and equal to N, and a variable with the same root and a suffix of FN is present"}}
{"id":"110","authority":"CDISC","standard":"ADaM-IG","standard_ver":"1.0","severity":"Medium","message":"Within a given value of PARAMCD, there is more than one value of AVISIT for a given value of AVISITN","source_document":"CDISC ADaM Conformance Rules v5.0","source_url":"https://www.cdisc.org/standards/foundational/adam/adam-conformance-rules-v5-0","source_version":"1","content_hash":"e91757bbed50f282f1471bf91cbfc40e176ed8016eecaccaff5e1d40035ddb83","license":"CC-BY-4.0","p21_id_equivalent":null,"fetched_at":null,"scope":{"classes":"BASIC DATA STRUCTURE","domains":[],"exclude_domains":[]},"check_tree":{"expand":"","all":[{"name":"AVISITN","operator":"is_not_unique_relationship","value":{"related_name":"AVISIT","group_by":"PARAMCD"}}]}}
{"id":"111","authority":"CDISC","standard":"ADaM-IG","standard_ver":"1.0,1.1,1.2,1.3","severity":"Medium","message":"ARELTM is present and ARELTMU is not present","source_document":"CDISC ADaM Conformance Rules v5.0","source_url":"https://www.cdisc.org/standards/foundational/adam/adam-conformance-rules-v5-0","source_version":"1","content_hash":"dbab319cee46a4b9b9547ba32fdbf2c689781b05d3a5310d6a637fd498b0a8cd","license":"CC-BY-4.0","p21_id_equivalent":null,"fetched_at":null,"scope":{"classes":"BASIC DATA STRUCTURE","domains":[],"exclude_domains":[]},"check_tree":{"all":[{"name":"ARELTM","operator":"exists"},{"name":"ARELTMU","operator":"not_exists"}]}}
{"id":"112","authority":"CDISC","standard":"ADaM-IG","standard_ver":"1.0,1.1,1.2,1.3","severity":"Medium","message":"ARELTM is populated and ARELTMU is not populated","source_document":"CDISC ADaM Conformance Rules v5.0","source_url":"https://www.cdisc.org/standards/foundational/adam/adam-conformance-rules-v5-0","source_version":"1","content_hash":"8f3f9d8413ba9ae300e5c42df86737f7111c8feefbe4fce2f3aab76ccf003b53","license":"CC-BY-4.0","p21_id_equivalent":null,"fetched_at":null,"scope":{"classes":"BASIC DATA STRUCTURE","domains":[],"exclude_domains":[]},"check_tree":{"all":[{"name":"ARELTM","operator":"non_empty"},{"name":"ARELTMU","operator":"empty"}]}}
{"id":"113","authority":"CDISC","standard":"ADaM-IG","standard_ver":"1.0,1.1,1.2,1.3","severity":"Medium","message":"ARELTMU is present and ARELTM is not present","source_document":"CDISC ADaM Conformance Rules v5.0","source_url":"https://www.cdisc.org/standards/foundational/adam/adam-conformance-rules-v5-0","source_version":"1","content_hash":"805afcbed9d5c2708975de23db2a7c39fdde883b587d926b9afd0d66f0cadfab","license":"CC-BY-4.0","p21_id_equivalent":null,"fetched_at":null,"scope":{"classes":"BASIC DATA STRUCTURE","domains":[],"exclude_domains":[]},"check_tree":{"all":[{"name":"ARELTMU","operator":"exists"},{"name":"ARELTM","operator":"not_exists"}]}}
{"id":"117","authority":"CDISC","standard":"ADaM-IG","standard_ver":"1.0,1.2,1.3","severity":"Medium","message":"Within a given value of PARAMCD, there is more than one value of ATPT for a given value of ATPTN","source_document":"CDISC ADaM Conformance Rules v5.0","source_url":"https://www.cdisc.org/standards/foundational/adam/adam-conformance-rules-v5-0","source_version":"1","content_hash":"4953c33c8007fa8471be79060569b521b7a1e582a7ccb75d52e5cfe7cc47518f","license":"CC-BY-4.0","p21_id_equivalent":null,"fetched_at":null,"scope":{"classes":"BASIC DATA STRUCTURE","domains":[],"exclude_domains":[]},"check_tree":{"expand":"","all":[{"name":"ATPTN","operator":"is_not_unique_relationship","value":{"related_name":"ATPT","group_by":"PARAMCD"}}]}}
{"id":"118","authority":"CDISC","standard":"ADaM-IG","standard_ver":"1.0,1.2,1.3","severity":"Medium","message":"Within a given value of PARAMCD, there is more than one value of ATPTN for a given value of ATPT","source_document":"CDISC ADaM Conformance Rules v5.0","source_url":"https://www.cdisc.org/standards/foundational/adam/adam-conformance-rules-v5-0","source_version":"1","content_hash":"885a714349f06f4eb6372ee1f560d0065df425dfe5f3ce01a6e390011231920c","license":"CC-BY-4.0","p21_id_equivalent":null,"fetched_at":null,"scope":{"classes":"BASIC DATA STRUCTURE","domains":[],"exclude_domains":[]},"check_tree":{"expand":"","all":[{"name":"ATPT","operator":"is_not_unique_relationship","value":{"related_name":"ATPTN","group_by":"PARAMCD"}}]}}
{"id":"12","authority":"CDISC","standard":"ADaM-IG","standard_ver":"1.0,1.1,1.2,1.3","severity":"Medium","message":"A variable with a suffix of FL is equal to null and a variable with the same root and a suffix of FN is not equal to null","source_document":"CDISC ADaM Conformance Rules v5.0","source_url":"https://www.cdisc.org/standards/foundational/adam/adam-conformance-rules-v5-0","source_version":"1","content_hash":"abfd380426afd8900aeccd849b8c80367e0e201b7115266c9166a20a4ced0c85","license":"CC-BY-4.0","p21_id_equivalent":null,"fetched_at":null,"scope":{"classes":"ALL","domains":[],"exclude_domains":[]},"check_tree":{"narrative":"","condition_success":"","condition_failure":"Variable with a suffix of FL is present and equal to null, and a variable with the same root and a suffix of FN is present"}}
{"id":"121","authority":"CDISC","standard":"ADaM-IG","standard_ver":"1.0,1.1,1.2,1.3","severity":"Medium","message":"The value of a variable with a suffix of SDT is greater than the value of a variable with the same root and a suffix of EDT, considering only rows on which both variables are populated","source_document":"CDISC ADaM Conformance Rules v5.0","source_url":"https://www.cdisc.org/standards/foundational/adam/adam-conformance-rules-v5-0","source_version":"1","content_hash":"3560f021ce96624b51dfa2894ba9ef0d0715fef7f691f8ee1f60d335e4bdb06e","license":"CC-BY-4.0","p21_id_equivalent":null,"fetched_at":null,"scope":{"classes":"ALL","domains":[],"exclude_domains":[]},"check_tree":{"narrative":"","condition_success":"","condition_failure":"On rows where *SDT and *EDT are both populated"}}
{"id":"122","authority":"CDISC","standard":"ADaM-IG","standard_ver":"1.0,1.1,1.2,1.3","severity":"Medium","message":"The value of a variable with a suffix of SDTM is greater than the value of a variable with the same root and a suffix of EDTM, considering only rows on which both variables are populated","source_document":"CDISC ADaM Conformance Rules v5.0","source_url":"https://www.cdisc.org/standards/foundational/adam/adam-conformance-rules-v5-0","source_version":"1","content_hash":"885609a74e6445e6b385994711d1f6a274b041512bf43eccdf68d03d09df5466","license":"CC-BY-4.0","p21_id_equivalent":null,"fetched_at":null,"scope":{"classes":"ALL","domains":[],"exclude_domains":[]},"check_tree":{"narrative":"","condition_success":"","condition_failure":"On rows where *SDTM and *EDTM are both populated"}}
{"id":"123","authority":"CDISC","standard":"ADaM-IG","standard_ver":"1.0,1.1","severity":"Medium","message":"There is more than one value of PARAMTYP for a given value of PARAMCD","source_document":"CDISC ADaM Conformance Rules v5.0","source_url":"https://www.cdisc.org/standards/foundational/adam/adam-conformance-rules-v5-0","source_version":"1","content_hash":"89a5ec963161651600218acc4f3b02ef8a7d056c1658a057afbd7cf2d204386a","license":"CC-BY-4.0","p21_id_equivalent":null,"fetched_at":null,"scope":{"classes":"BASIC DATA STRUCTURE","domains":[],"exclude_domains":[]},"check_tree":{"all":[{"name":"PARAMCD","operator":"is_not_unique_relationship","value":{"related_name":"PARAMTYP"}}]}}
{"id":"124","authority":"CDISC","standard":"ADaM-IG","standard_ver":"1.0,1.1,1.2,1.3","severity":"Medium","message":"There is more than one value of PARCATy for a given value of PARAMCD","source_document":"CDISC ADaM Conformance Rules v5.0","source_url":"https://www.cdisc.org/standards/foundational/adam/adam-conformance-rules-v5-0","source_version":"1","content_hash":"35d73473b39300fb327405a1b8b1f7b77f7a307edb81502c7a713e1a0c94a634","license":"CC-BY-4.0","p21_id_equivalent":null,"fetched_at":null,"scope":{"classes":"BASIC DATA STRUCTURE","domains":[],"exclude_domains":[]},"check_tree":{"expand":"y","all":[{"name":"PARAMCD","operator":"is_not_unique_relationship","value":{"related_name":"PARCATy"}}]}}
{"id":"125","authority":"CDISC","standard":"ADaM-IG","standard_ver":"1.0","severity":"Medium","message":"There is more than one value of PARCATy for a given value of PARCATyN","source_document":"CDISC ADaM Conformance Rules v5.0","source_url":"https://www.cdisc.org/standards/foundational/adam/adam-conformance-rules-v5-0","source_version":"1","content_hash":"dd58674d0c6a27db8cc4cba59f32bfc90bb0becbfa24b7a7bfdcad244ad97507","license":"CC-BY-4.0","p21_id_equivalent":null,"fetched_at":null,"scope":{"classes":"BASIC DATA STRUCTURE","domains":[],"exclude_domains":[]},"check_tree":{"expand":"y","all":[{"name":"PARCATyN","operator":"is_not_unique_relationship","value":{"related_name":"PARCATy"}}]}}
{"id":"126","authority":"CDISC","standard":"ADaM-IG","standard_ver":"1.0","severity":"Medium","message":"There is more than one value of PARCATyN for a given value of PARCATy","source_document":"CDISC ADaM Conformance Rules v5.0","source_url":"https://www.cdisc.org/standards/foundational/adam/adam-conformance-rules-v5-0","source_version":"1","content_hash":"103dfc1e11bf00e5db233b3561431d6e52a61c4805fdcacd36c4dcf09f0c709e","license":"CC-BY-4.0","p21_id_equivalent":null,"fetched_at":null,"scope":{"classes":"BASIC DATA STRUCTURE","domains":[],"exclude_domains":[]},"check_tree":{"expand":"y","all":[{"name":"PARCATy","operator":"is_not_unique_relationship","value":{"related_name":"PARCATyN"}}]}}
{"id":"127","authority":"CDISC","standard":"ADaM-IG","standard_ver":"1.0,1.1,1.2,1.3","severity":"Medium","message":"Within a given value of PARAMCD for a subject, BASE is populated and there is not at least one record with ABLFL equal to Y","source_document":"CDISC ADaM Conformance Rules v5.0","source_url":"https://www.cdisc.org/standards/foundational/adam/adam-conformance-rules-v5-0","source_version":"1","content_hash":"643ada7385175685b43758769a597875ff0c601dd731157f7b3b18a4593c99c1","license":"CC-BY-4.0","p21_id_equivalent":null,"fetched_at":null,"scope":{"classes":"BASIC DATA STRUCTURE","domains":[],"exclude_domains":[]},"check_tree":{"narrative":"","condition_success":"","condition_failure":"BASE is populated"}}
{"id":"128","authority":"CDISC","standard":"ADaM-IG","standard_ver":"1.0,1.1,1.2,1.3","severity":"Medium","message":"Within a given value of PARAMCD for a subject, BASEC is populated and there is not at least one record with ABLFL equal to Y","source_document":"CDISC ADaM Conformance Rules v5.0","source_url":"https://www.cdisc.org/standards/foundational/adam/adam-conformance-rules-v5-0","source_version":"1","content_hash":"d97c2dfb9f7977746b3aebd9c71a9d53773029f7f39c4e73c7762317b751acd7","license":"CC-BY-4.0","p21_id_equivalent":null,"fetched_at":null,"scope":{"classes":"BASIC DATA STRUCTURE","domains":[],"exclude_domains":[]},"check_tree":{"narrative":"","condition_success":"","condition_failure":"BASEC is populated"}}
{"id":"129","authority":"CDISC","standard":"ADaM-IG","standard_ver":"1.0","severity":"Medium","message":"Within a given value of PARAMCD for a subject, there is more than one value of BASE for a given value of BASEC","source_document":"CDISC ADaM Conformance Rules v5.0","source_url":"https://www.cdisc.org/standards/foundational/adam/adam-conformance-rules-v5-0","source_version":"1","content_hash":"bd570fbf0f681348dfa811e1ebfa0bcbb019082479497b4d82fb0de395ecf0e8","license":"CC-BY-4.0","p21_id_equivalent":null,"fetched_at":null,"scope":{"classes":"BASIC DATA STRUCTURE","domains":[],"exclude_domains":[]},"check_tree":{"expand":"","all":[{"name":"BASEC","operator":"is_not_unique_relationship","value":{"related_name":"BASE","group_by":"PARAMCD"}}]}}
{"id":"13","authority":"CDISC","standard":"ADaM-IG","standard_ver":"1.0,1.1,1.2,1.3","severity":"Medium","message":"The length of a variable name exceeds 8 characters","source_document":"CDISC ADaM Conformance Rules v5.0","source_url":"https://www.cdisc.org/standards/foundational/adam/adam-conformance-rules-v5-0","source_version":"1","content_hash":"a8296036d032368f06223d271cd825c2df80aee638181cd6db48e6a1b51e22fe","license":"CC-BY-4.0","p21_id_equivalent":null,"fetched_at":null,"scope":{"classes":"ALL","domains":[],"exclude_domains":[]},"check_tree":{"operator":"any_var_name_exceeds_length","value":8}}
{"id":"130","authority":"CDISC","standard":"ADaM-IG","standard_ver":"1.0","severity":"Medium","message":"Within a given value of PARAMCD for a subject, there is more than one value of BASEC for a given value of BASE","source_document":"CDISC ADaM Conformance Rules v5.0","source_url":"https://www.cdisc.org/standards/foundational/adam/adam-conformance-rules-v5-0","source_version":"1","content_hash":"e69689b414826c8a2db91e102604f18ab951ffceb6c8cc1cb69cf514fcd7497e","license":"CC-BY-4.0","p21_id_equivalent":null,"fetched_at":null,"scope":{"classes":"BASIC DATA STRUCTURE","domains":[],"exclude_domains":[]},"check_tree":{"expand":"","all":[{"name":"BASE","operator":"is_not_unique_relationship","value":{"related_name":"BASEC","group_by":"PARAMCD"}}]}}
{"id":"131","authority":"CDISC","standard":"ADaM-IG","standard_ver":"1.0,1.2","severity":"Medium","message":"Within a given value of PARAMCD, BASETYPE is populated for at least one record and is not populated for at least one record","source_document":"CDISC ADaM Conformance Rules v5.0","source_url":"https://www.cdisc.org/standards/foundational/adam/adam-conformance-rules-v5-0","source_version":"1","content_hash":"af900ff0374367724a201659ff175c48d019a98ec3ac4e556dda273101c79fb2","license":"CC-BY-4.0","p21_id_equivalent":null,"fetched_at":null,"scope":{"classes":"BASIC DATA STRUCTURE","domains":[],"exclude_domains":[]},"check_tree":{"narrative":"","condition_success":"","condition_failure":""}}
{"id":"132","authority":"CDISC","standard":"ADaM-IG","standard_ver":"1.0,1.1,1.2,1.3","severity":"Medium","message":"R2BASE is not equal to AVAL divided by BASE","source_document":"CDISC ADaM Conformance Rules v5.0","source_url":"https://www.cdisc.org/standards/foundational/adam/adam-conformance-rules-v5-0","source_version":"1","content_hash":"fd9af539638ef154e7a21e7b84b730e284897ca7fa2bfe9846ce888a1f7577a6","license":"CC-BY-4.0","p21_id_equivalent":null,"fetched_at":null,"scope":{"classes":"BASIC DATA STRUCTURE","domains":[],"exclude_domains":[]},"check_tree":{"narrative":"","condition_success":"","condition_failure":"AVAL and BASE are populated"}}
{"id":"133","authority":"CDISC","standard":"ADaM-IG","standard_ver":"1.0,1.1,1.2,1.3","severity":"Medium","message":"R2AyLO is not equal to AVAL divided by AyLO","source_document":"CDISC ADaM Conformance Rules v5.0","source_url":"https://www.cdisc.org/standards/foundational/adam/adam-conformance-rules-v5-0","source_version":"1","content_hash":"a73f4c7bca3f53588dbb0e45542bdd882d4195b966fb37c8dc1950f00235574f","license":"CC-BY-4.0","p21_id_equivalent":null,"fetched_at":null,"scope":{"classes":"BASIC DATA STRUCTURE","domains":[],"exclude_domains":[]},"check_tree":{"narrative":"","condition_success":"","condition_failure":"AVAL and AyLO are populated"}}
{"id":"134","authority":"CDISC","standard":"ADaM-IG","standard_ver":"1.0,1.1,1.2,1.3","severity":"Medium","message":"R2AyHI is not equal to AVAL divided by AyHI","source_document":"CDISC ADaM Conformance Rules v5.0","source_url":"https://www.cdisc.org/standards/foundational/adam/adam-conformance-rules-v5-0","source_version":"1","content_hash":"ca652b655391c91c2d1ee4677be1538b25d616f98c1d2eedcb7cc804284aa207","license":"CC-BY-4.0","p21_id_equivalent":null,"fetched_at":null,"scope":{"classes":"BASIC DATA STRUCTURE","domains":[],"exclude_domains":[]},"check_tree":{"narrative":"","condition_success":"","condition_failure":"AVAL and AyHI are populated"}}
{"id":"135","authority":"CDISC","standard":"ADaM-IG","standard_ver":"1.0","severity":"Medium","message":"Within a given value of PARAMCD, there is more than one value of SHIFTy for a given value of SHIFTyN","source_document":"CDISC ADaM Conformance Rules v5.0","source_url":"https://www.cdisc.org/standards/foundational/adam/adam-conformance-rules-v5-0","source_version":"1","content_hash":"e1660394afa3c9dcb0a60d62f83398f8ee7ec59c5e70a9ed3acc27287cf4cc50","license":"CC-BY-4.0","p21_id_equivalent":null,"fetched_at":null,"scope":{"classes":"BASIC DATA STRUCTURE","domains":[],"exclude_domains":[]},"check_tree":{"expand":"y","all":[{"name":"SHIFTyN","operator":"is_not_unique_relationship","value":{"related_name":"SHIFTy","group_by":"PARAMCD"}}]}}
{"id":"136","authority":"CDISC","standard":"ADaM-IG","standard_ver":"1.0","severity":"Medium","message":"Within a given value of PARAMCD, there is more than one value of SHIFTyN for a given value of SHIFTy","source_document":"CDISC ADaM Conformance Rules v5.0","source_url":"https://www.cdisc.org/standards/foundational/adam/adam-conformance-rules-v5-0","source_version":"1","content_hash":"7b40854b2587464cbe539d04290d4dc1ded8b86b68c210c582c9ad2deb7ed053","license":"CC-BY-4.0","p21_id_equivalent":null,"fetched_at":null,"scope":{"classes":"BASIC DATA STRUCTURE","domains":[],"exclude_domains":[]},"check_tree":{"expand":"y","all":[{"name":"SHIFTy","operator":"is_not_unique_relationship","value":{"related_name":"SHIFTyN","group_by":"PARAMCD"}}]}}
{"id":"137","authority":"CDISC","standard":"ADaM-IG","standard_ver":"1.0,1.1,1.2,1.3","severity":"Medium","message":"CRITyFL is populated and CRITy is not populated","source_document":"CDISC ADaM Conformance Rules v5.0","source_url":"https://www.cdisc.org/standards/foundational/adam/adam-conformance-rules-v5-0","source_version":"1","content_hash":"f389c915547e4487404fb2a8e4b02609ec08214d2c28e8d90ee9aaa5f100f8f2","license":"CC-BY-4.0","p21_id_equivalent":null,"fetched_at":null,"scope":{"classes":"BASIC DATA STRUCTURE","domains":[],"exclude_domains":[]},"check_tree":{"narrative":"","condition_success":"","condition_failure":"CRITyFL is populated"}}
{"id":"14","authority":"CDISC","standard":"ADaM-IG","standard_ver":"1.0,1.1,1.2,1.3","severity":"Medium","message":"A variable name does not start with a letter (A-Z)","source_document":"CDISC ADaM Conformance Rules v5.0","source_url":"https://www.cdisc.org/standards/foundational/adam/adam-conformance-rules-v5-0","source_version":"1","content_hash":"af900ff0374367724a201659ff175c48d019a98ec3ac4e556dda273101c79fb2","license":"CC-BY-4.0","p21_id_equivalent":null,"fetched_at":null,"scope":{"classes":"ALL","domains":[],"exclude_domains":[]},"check_tree":{"narrative":"","condition_success":"","condition_failure":""}}
{"id":"141","authority":"CDISC","standard":"ADaM-IG","standard_ver":"1.0","severity":"Medium","message":"There is more than one value of PARAM for a given value of PARAMCD","source_document":"CDISC ADaM Conformance Rules v5.0","source_url":"https://www.cdisc.org/standards/foundational/adam/adam-conformance-rules-v5-0","source_version":"1","content_hash":"a164fd65fe76f4703b0c58588ff6b8dc159b5dca0c744cea401f321bc36e986f","license":"CC-BY-4.0","p21_id_equivalent":null,"fetched_at":null,"scope":{"classes":"BASIC DATA STRUCTURE","domains":[],"exclude_domains":[]},"check_tree":{"all":[{"name":"PARAMCD","operator":"is_not_unique_relationship","value":{"related_name":"PARAM"}}]}}
{"id":"142","authority":"CDISC","standard":"ADaM-IG","standard_ver":"1.0","severity":"Medium","message":"There is more than one value of PARAMCD for a given value of PARAM","source_document":"CDISC ADaM Conformance Rules v5.0","source_url":"https://www.cdisc.org/standards/foundational/adam/adam-conformance-rules-v5-0","source_version":"1","content_hash":"8d49ab94c2f51734a3461731118488ae18e80179264553145f6951d0d8a05142","license":"CC-BY-4.0","p21_id_equivalent":null,"fetched_at":null,"scope":{"classes":"BASIC DATA STRUCTURE","domains":[],"exclude_domains":[]},"check_tree":{"all":[{"name":"PARAM","operator":"is_not_unique_relationship","value":{"related_name":"PARAMCD"}}]}}
{"id":"143","authority":"CDISC","standard":"ADaM-IG","standard_ver":"1.0,1.1,1.2,1.3","severity":"Medium","message":"PARAMCD has more than 8 characters in length","source_document":"CDISC ADaM Conformance Rules v5.0","source_url":"https://www.cdisc.org/standards/foundational/adam/adam-conformance-rules-v5-0","source_version":"1","content_hash":"2de682da9fe64348a5aa25ab3bcc614cdb1d93e2b675fc91e5f3e2a8bea8e216","license":"CC-BY-4.0","p21_id_equivalent":null,"fetched_at":null,"scope":{"classes":"BASIC DATA STRUCTURE","domains":[],"exclude_domains":[]},"check_tree":{"operator":"longer_than","name":"PARAMCD","value":8}}
{"id":"144","authority":"CDISC","standard":"ADaM-IG","standard_ver":"1.0,1.1,1.2,1.3","severity":"Medium","message":"PARAMCD starts with a character other than a letter","source_document":"CDISC ADaM Conformance Rules v5.0","source_url":"https://www.cdisc.org/standards/foundational/adam/adam-conformance-rules-v5-0","source_version":"1","content_hash":"6ab3abb51b29bb2e190f4c73c983494a5d9afcf0f0f1a5d99abc6b81da7844de","license":"CC-BY-4.0","p21_id_equivalent":null,"fetched_at":null,"scope":{"classes":"BASIC DATA STRUCTURE","domains":[],"exclude_domains":[]},"check_tree":{"operator":"not_matches_regex","name":"PARAMCD","value":"^[A-Za-z]"}}
{"id":"145","authority":"CDISC","standard":"ADaM-IG","standard_ver":"1.0,1.1,1.2,1.3","severity":"Medium","message":"PARAMCD has characters that are not letters, digits, and underscores","source_document":"CDISC ADaM Conformance Rules v5.0","source_url":"https://www.cdisc.org/standards/foundational/adam/adam-conformance-rules-v5-0","source_version":"1","content_hash":"323617081d4a5e783a7cac58873f5c0752f6df85048ecc8ce4c9538d5fc61cf6","license":"CC-BY-4.0","p21_id_equivalent":null,"fetched_at":null,"scope":{"classes":"BASIC DATA STRUCTURE","domains":[],"exclude_domains":[]},"check_tree":{"operator":"not_matches_regex","name":"PARAMCD","value":"^[A-Za-z0-9_]+$"}}
{"id":"146","authority":"CDISC","standard":"ADaM-IG","standard_ver":"1.0","severity":"Medium","message":"Within a dataset, there is more than one value of PARAM for a given value of PARAMN","source_document":"CDISC ADaM Conformance Rules v5.0","source_url":"https://www.cdisc.org/standards/foundational/adam/adam-conformance-rules-v5-0","source_version":"1","content_hash":"4c821872ab9bbd8bfc50f13856afa32a3da390125b40150073fa765969a8debe","license":"CC-BY-4.0","p21_id_equivalent":null,"fetched_at":null,"scope":{"classes":"BASIC DATA STRUCTURE","domains":[],"exclude_domains":[]},"check_tree":{"expand":"","all":[{"name":"PARAMN","operator":"is_not_unique_relationship","value":{"related_name":"PARAM"}}]}}
{"id":"147","authority":"CDISC","standard":"ADaM-IG","standard_ver":"1.0","severity":"Medium","message":"Within a dataset, there is more than one value of PARAMN for a given value of PARAM","source_document":"CDISC ADaM Conformance Rules v5.0","source_url":"https://www.cdisc.org/standards/foundational/adam/adam-conformance-rules-v5-0","source_version":"1","content_hash":"7c93c2d94b18166b491a617895f16ea7d880463299f11b509f7ed153acd9348b","license":"CC-BY-4.0","p21_id_equivalent":null,"fetched_at":null,"scope":{"classes":"BASIC DATA STRUCTURE","domains":[],"exclude_domains":[]},"check_tree":{"expand":"","all":[{"name":"PARAM","operator":"is_not_unique_relationship","value":{"related_name":"PARAMN"}}]}}
{"id":"148","authority":"CDISC","standard":"ADaM-IG","standard_ver":"1.0","severity":"Medium","message":"PARAMN is not an integer","source_document":"CDISC ADaM Conformance Rules v5.0","source_url":"https://www.cdisc.org/standards/foundational/adam/adam-conformance-rules-v5-0","source_version":"1","content_hash":"af900ff0374367724a201659ff175c48d019a98ec3ac4e556dda273101c79fb2","license":"CC-BY-4.0","p21_id_equivalent":null,"fetched_at":null,"scope":{"classes":"BASIC DATA STRUCTURE","domains":[],"exclude_domains":[]},"check_tree":{"narrative":"","condition_success":"","condition_failure":""}}
{"id":"149","authority":"CDISC","standard":"ADaM-IG","standard_ver":"1.0","severity":"Medium","message":"Within a given value of PARAMCD, there is more than one value of AVALC for a given value of AVAL","source_document":"CDISC ADaM Conformance Rules v5.0","source_url":"https://www.cdisc.org/standards/foundational/adam/adam-conformance-rules-v5-0","source_version":"1","content_hash":"d925e98e8ff6964c9c7e706b3ca6c6ed1ebae9ccb34b56e9605155ba29c1925f","license":"CC-BY-4.0","p21_id_equivalent":null,"fetched_at":null,"scope":{"classes":"BASIC DATA STRUCTURE","domains":[],"exclude_domains":[]},"check_tree":{"expand":"","all":[{"name":"AVAL","operator":"is_not_unique_relationship","value":{"related_name":"AVALC","group_by":"PARAMCD"}}]}}
{"id":"15","authority":"CDISC","standard":"ADaM-IG","standard_ver":"1.0,1.1,1.2,1.3","severity":"Medium","message":"A variable name contains a character other than letters (A-Z), underscores (_), or numerals (0-9)","source_document":"CDISC ADaM Conformance Rules v5.0","source_url":"https://www.cdisc.org/standards/foundational/adam/adam-conformance-rules-v5-0","source_version":"1","content_hash":"af900ff0374367724a201659ff175c48d019a98ec3ac4e556dda273101c79fb2","license":"CC-BY-4.0","p21_id_equivalent":null,"fetched_at":null,"scope":{"classes":"ALL","domains":[],"exclude_domains":[]},"check_tree":{"narrative":"","condition_success":"","condition_failure":""}}
{"id":"150","authority":"CDISC","standard":"ADaM-IG","standard_ver":"1.0","severity":"Medium","message":"Within a given value of PARAMCD, there is more than one value of AVAL for a given value of AVALC","source_document":"CDISC ADaM Conformance Rules v5.0","source_url":"https://www.cdisc.org/standards/foundational/adam/adam-conformance-rules-v5-0","source_version":"1","content_hash":"14a944b40bf47dd514eafaa4da06ecfbca70e27e155a4fef47853f4402566ccf","license":"CC-BY-4.0","p21_id_equivalent":null,"fetched_at":null,"scope":{"classes":"BASIC DATA STRUCTURE","domains":[],"exclude_domains":[]},"check_tree":{"expand":"","all":[{"name":"AVALC","operator":"is_not_unique_relationship","value":{"related_name":"AVAL","group_by":"PARAMCD"}}]}}
{"id":"151","authority":"CDISC","standard":"ADaM-IG","standard_ver":"1.0,1.1,1.2,1.3","severity":"Medium","message":"Within a given value of PARAMCD, there is more than one value of CRITy","source_document":"CDISC ADaM Conformance Rules v5.0","source_url":"https://www.cdisc.org/standards/foundational/adam/adam-conformance-rules-v5-0","source_version":"1","content_hash":"af900ff0374367724a201659ff175c48d019a98ec3ac4e556dda273101c79fb2","license":"CC-BY-4.0","p21_id_equivalent":null,"fetched_at":null,"scope":{"classes":"BASIC DATA STRUCTURE","domains":[],"exclude_domains":[]},"check_tree":{"narrative":"","condition_success":"","condition_failure":""}}
{"id":"152","authority":"CDISC","standard":"ADaM-IG","standard_ver":"1.0,1.1,1.2","severity":"Medium","message":"BASETYPE is present, BASE is populated, and BASE is not equal to AVAL where ABLFL is equal to Y for a given value of PARAMCD and BASETYPE for a subject","source_document":"CDISC ADaM Conformance Rules v5.0","source_url":"https://www.cdisc.org/standards/foundational/adam/adam-conformance-rules-v5-0","source_version":"1","content_hash":"7d8561e2f09ac55ab0c630412465aacf6d52e880c55e44e8a437e9a46c20b4b4","license":"CC-BY-4.0","p21_id_equivalent":null,"fetched_at":null,"scope":{"classes":"BASIC DATA STRUCTURE","domains":[],"exclude_domains":[]},"check_tree":{"narrative":"","condition_success":"","condition_failure":"BASETYPE is present and BASE is populated"}}
{"id":"154","authority":"CDISC","standard":"ADaM-IG","standard_ver":"1.0,1.1,1.2,1.3","severity":"Medium","message":"Within a given PARAMCD and BASETYPE for a subject, more than one record has ABLFL equal to Y","source_document":"CDISC ADaM Conformance Rules v5.0","source_url":"https://www.cdisc.org/standards/foundational/adam/adam-conformance-rules-v5-0","source_version":"1","content_hash":"1d99762cafb95846bd851392add04ac08450143b816484ee639cde7f64298951","license":"CC-BY-4.0","p21_id_equivalent":null,"fetched_at":null,"scope":{"classes":"BASIC DATA STRUCTURE","domains":[],"exclude_domains":[]},"check_tree":{"narrative":"","condition_success":"","condition_failure":"BASETYPE is present"}}
{"id":"155","authority":"CDISC","standard":"ADaM-IG","standard_ver":"1.0,1.1,1.2,1.3","severity":"Medium","message":"Within a given PARAMCD for a subject, more than one record has ABLFL equal to Y and BASETYPE is not present","source_document":"CDISC ADaM Conformance Rules v5.0","source_url":"https://www.cdisc.org/standards/foundational/adam/adam-conformance-rules-v5-0","source_version":"1","content_hash":"13374c06977fb42e170bcb099190e4b6399b7e515ace474c5d108aa1671cd7f6","license":"CC-BY-4.0","p21_id_equivalent":null,"fetched_at":null,"scope":{"classes":"BASIC DATA STRUCTURE","domains":[],"exclude_domains":[]},"check_tree":{"narrative":"","condition_success":"","condition_failure":"BASETYPE is not present"}}
{"id":"156","authority":"CDISC","standard":"ADaM-IG","standard_ver":"1.0","severity":"Medium","message":"A variable with a prefix of CRIT, a suffix of FL and containing a one-digit number (CRITyFL) is present and a variable with the same root without a suffix of FL (CRITy) is not present","source_document":"CDISC ADaM Conformance Rules v5.0","source_url":"https://www.cdisc.org/standards/foundational/adam/adam-conformance-rules-v5-0","source_version":"1","content_hash":"ba611df5a44525d8fd35b954faf9343b912e949762fb1f24bf2a0b9e7a990dfb","license":"CC-BY-4.0","p21_id_equivalent":null,"fetched_at":null,"scope":{"classes":"BASIC DATA STRUCTURE","domains":[],"exclude_domains":[]},"check_tree":{"narrative":"","condition_success":"","condition_failure":"CRITyFL is present"}}
{"id":"157","authority":"CDISC","standard":"ADaM-IG","standard_ver":"1.0,1.1,1.2,1.3","severity":"Medium","message":"A variable with a prefix of CRIT and a suffix of a one-digit number (CRITy) is present and a variable with the same root with a suffix of FL (CRITyFL) is not present","source_document":"CDISC ADaM Conformance Rules v5.0","source_url":"https://www.cdisc.org/standards/foundational/adam/adam-conformance-rules-v5-0","source_version":"1","content_hash":"37667a1c4ec73c589c8d4cb75863d1681c721d58944cdfb76bf2615aec506077","license":"CC-BY-4.0","p21_id_equivalent":null,"fetched_at":null,"scope":{"classes":"BASIC DATA STRUCTURE","domains":[],"exclude_domains":[]},"check_tree":{"narrative":"","condition_success":"","condition_failure":"CRITy is present"}}
{"id":"159","authority":"CDISC","standard":"ADaM-IG","standard_ver":"1.0,1.1,1.2,1.3","severity":"Medium","message":"AWTDIFF is populated and AWTARGET is not populated","source_document":"CDISC ADaM Conformance Rules v5.0","source_url":"https://www.cdisc.org/standards/foundational/adam/adam-conformance-rules-v5-0","source_version":"1","content_hash":"e51e18e37603ee28302b27102a2323199e92e090a49c6d7ec0b6f935255f15e0","license":"CC-BY-4.0","p21_id_equivalent":null,"fetched_at":null,"scope":{"classes":"BASIC DATA STRUCTURE","domains":[],"exclude_domains":[]},"check_tree":{"all":[{"name":"AWTDIFF","operator":"non_empty"},{"name":"AWTARGET","operator":"empty"}]}}
{"id":"16","authority":"CDISC","standard":"ADaM-IG","standard_ver":"1.0,1.1,1.2,1.3","severity":"Medium","message":"The length of a variable label is greater than 40 characters","source_document":"CDISC ADaM Conformance Rules v5.0","source_url":"https://www.cdisc.org/standards/foundational/adam/adam-conformance-rules-v5-0","source_version":"1","content_hash":"07da0337b9adc34a40e7b63bde867b3aee142275783f78de8580c4a78190c28c","license":"CC-BY-4.0","p21_id_equivalent":null,"fetched_at":null,"scope":{"classes":"ALL","domains":[],"exclude_domains":[]},"check_tree":{"operator":"any_var_label_exceeds_length","value":40}}
{"id":"160","authority":"CDISC","standard":"ADaM-IG","standard_ver":"1.0,1.1","severity":"Medium","message":"AWU is present and both AWLO and AWHI are not present","source_document":"CDISC ADaM Conformance Rules v5.0","source_url":"https://www.cdisc.org/standards/foundational/adam/adam-conformance-rules-v5-0","source_version":"1","content_hash":"c88f808afd1af9d5a21358fee3a2272a03b6e47fdec8fe0de29af307e4c84081","license":"CC-BY-4.0","p21_id_equivalent":null,"fetched_at":null,"scope":{"classes":"BASIC DATA STRUCTURE","domains":[],"exclude_domains":[]},"check_tree":{"narrative":"","condition_success":"","condition_failure":"AWU is present"}}
{"id":"163","authority":"CDISC","standard":"ADaM-IG","standard_ver":"1.0,1.1,1.2,1.3","severity":"Medium","message":"BTOXGR is present and ATOXGR is not present","source_document":"CDISC ADaM Conformance Rules v5.0","source_url":"https://www.cdisc.org/standards/foundational/adam/adam-conformance-rules-v5-0","source_version":"1","content_hash":"036a9423f6d018825b07bc4b071d0966b902e43f68e1fe77104c30d32b379ee8","license":"CC-BY-4.0","p21_id_equivalent":null,"fetched_at":null,"scope":{"classes":"BASIC DATA STRUCTURE","domains":[],"exclude_domains":[]},"check_tree":{"all":[{"name":"BTOXGR","operator":"exists"},{"name":"ATOXGR","operator":"not_exists"}]}}
{"id":"164","authority":"CDISC","standard":"ADaM-IG","standard_ver":"1.0,1.1,1.2,1.3","severity":"Medium","message":"BTOXGR is present and ABLFL is not present","source_document":"CDISC ADaM Conformance Rules v5.0","source_url":"https://www.cdisc.org/standards/foundational/adam/adam-conformance-rules-v5-0","source_version":"1","content_hash":"8529efe26a17fec5d676619c0964bdb9917e048d27f43e24f26edaf7f23efbfc","license":"CC-BY-4.0","p21_id_equivalent":null,"fetched_at":null,"scope":{"classes":"BASIC DATA STRUCTURE","domains":[],"exclude_domains":[]},"check_tree":{"all":[{"name":"BTOXGR","operator":"exists"},{"name":"ABLFL","operator":"not_exists"}]}}
{"id":"165","authority":"CDISC","standard":"ADaM-IG","standard_ver":"1.0,1.1,1.2","severity":"Medium","message":"BASETYPE is present, BTOXGR is populated, and BTOXGR is not equal to ATOXGR where ABLFL is equal to Y for a given value of PARAMCD and BASETYPE","source_document":"CDISC ADaM Conformance Rules v5.0","source_url":"https://www.cdisc.org/standards/foundational/adam/adam-conformance-rules-v5-0","source_version":"1","content_hash":"3c0445d0ed0f4a29042e312466d00fd91ac9a39b897b176ea7c10c54cd7ba9df","license":"CC-BY-4.0","p21_id_equivalent":null,"fetched_at":null,"scope":{"classes":"BASIC DATA STRUCTURE","domains":[],"exclude_domains":[]},"check_tree":{"narrative":"","condition_success":"","condition_failure":"BASETYPE is present and BTOXGR is populated"}}
{"id":"166","authority":"CDISC","standard":"ADaM-IG","standard_ver":"1.0,1.1,1.2,1.3","severity":"Medium","message":"BNRIND is present and ANRIND is not present","source_document":"CDISC ADaM Conformance Rules v5.0","source_url":"https://www.cdisc.org/standards/foundational/adam/adam-conformance-rules-v5-0","source_version":"1","content_hash":"d17e39e2bfdcc18c539e8b4113b54142e76dda23d41eb2d879a6999e915a1c83","license":"CC-BY-4.0","p21_id_equivalent":null,"fetched_at":null,"scope":{"classes":"BASIC DATA STRUCTURE","domains":[],"exclude_domains":[]},"check_tree":{"all":[{"name":"BNRIND","operator":"exists"},{"name":"ANRIND","operator":"not_exists"}]}}
{"id":"167","authority":"CDISC","standard":"ADaM-IG","standard_ver":"1.0,1.1,1.2,1.3","severity":"Medium","message":"BNRIND is present and ABLFL is not present","source_document":"CDISC ADaM Conformance Rules v5.0","source_url":"https://www.cdisc.org/standards/foundational/adam/adam-conformance-rules-v5-0","source_version":"1","content_hash":"ebc894f297dd348a5e6da630e9f4130ada6e49fabe6c4ebb0b94ccff9e4f6aec","license":"CC-BY-4.0","p21_id_equivalent":null,"fetched_at":null,"scope":{"classes":"BASIC DATA STRUCTURE","domains":[],"exclude_domains":[]},"check_tree":{"all":[{"name":"BNRIND","operator":"exists"},{"name":"ABLFL","operator":"not_exists"}]}}
{"id":"168","authority":"CDISC","standard":"ADaM-IG","standard_ver":"1.0,1.1,1.2","severity":"Medium","message":"BASETYPE is present, BNRIND is populated, and BNRIND is not equal to ANRIND where ABLFL is equal to Y for a given value of PARAMCD and BASETYPE","source_document":"CDISC ADaM Conformance Rules v5.0","source_url":"https://www.cdisc.org/standards/foundational/adam/adam-conformance-rules-v5-0","source_version":"1","content_hash":"6d167a3df8c371cef0eb647b1a5bde3002edccc0f59421677ae1d0de052c89e6","license":"CC-BY-4.0","p21_id_equivalent":null,"fetched_at":null,"scope":{"classes":"BASIC DATA STRUCTURE","domains":[],"exclude_domains":[]},"check_tree":{"narrative":"","condition_success":"","condition_failure":"BASETYPE is present and BNRIND is populated"}}
{"id":"169","authority":"CDISC","standard":"ADaM-IG","standard_ver":"1.0,1.1,1.2,1.3","severity":"Medium","message":"The value of CNSR is not a positive integer or 0","source_document":"CDISC ADaM Conformance Rules v5.0","source_url":"https://www.cdisc.org/standards/foundational/adam/adam-conformance-rules-v5-0","source_version":"1","content_hash":"f3ec8f65279597b605ca65125f2b4e3b1bfabba5bd2e2f02e6f480f2e4efa077","license":"CC-BY-4.0","p21_id_equivalent":null,"fetched_at":null,"scope":{"classes":"BASIC DATA STRUCTURE","domains":[],"exclude_domains":[]},"check_tree":{"narrative":"","condition_success":"","condition_failure":"CNSR is populated"}}
{"id":"17","authority":"CDISC","standard":"ADaM-IG","standard_ver":"1.0,1.1,1.2,1.3","severity":"Medium","message":"The length of a character value is greater than 200 characters","source_document":"CDISC ADaM Conformance Rules v5.0","source_url":"https://www.cdisc.org/standards/foundational/adam/adam-conformance-rules-v5-0","source_version":"1","content_hash":"c50ec1aa05d6adc06afc85833e1224640e2c7c9e470f20207ecf001ea3cb1bc8","license":"CC-BY-4.0","p21_id_equivalent":null,"fetched_at":null,"scope":{"classes":"ALL","domains":[],"exclude_domains":[]},"check_tree":{"operator":"any_value_exceeds_length","value":200}}
{"id":"176","authority":"CDISC","standard":"ADaM-IG","standard_ver":"1.0,1.1","severity":"Medium","message":"ABLFL is not equal to Y or null","source_document":"CDISC ADaM Conformance Rules v5.0","source_url":"https://www.cdisc.org/standards/foundational/adam/adam-conformance-rules-v5-0","source_version":"1","content_hash":"af900ff0374367724a201659ff175c48d019a98ec3ac4e556dda273101c79fb2","license":"CC-BY-4.0","p21_id_equivalent":null,"fetched_at":null,"scope":{"classes":"BASIC DATA STRUCTURE","domains":[],"exclude_domains":[]},"check_tree":{"narrative":"","condition_success":"","condition_failure":""}}
{"id":"178","authority":"CDISC","standard":"ADaM-IG","standard_ver":"1.0,1.1","severity":"Medium","message":"ANLzzFL is not equal to Y or null where zz is a zero-padded two-digit integer [01-99]","source_document":"CDISC ADaM Conformance Rules v5.0","source_url":"https://www.cdisc.org/standards/foundational/adam/adam-conformance-rules-v5-0","source_version":"1","content_hash":"af900ff0374367724a201659ff175c48d019a98ec3ac4e556dda273101c79fb2","license":"CC-BY-4.0","p21_id_equivalent":null,"fetched_at":null,"scope":{"classes":["BASIC DATA STRUCTURE","OCCURRENCE DATA STRUCTURE"],"domains":[],"exclude_domains":[]},"check_tree":{"narrative":"","condition_success":"","condition_failure":""}}
{"id":"18","authority":"CDISC","standard":"ADaM-IG","standard_ver":"1.0","severity":"Medium","message":"Labels for ADaM variables do not match the standard labels for ADaM variables listed in the implementation guide that cannot be modified (with the exception of 1) variables whose names contain indexes “y”, \"xx\", or “zz”; and (2) variable labels with asterisks (*) and ellipses (...) indicated for sponsor appropriate text)","source_document":"CDISC ADaM Conformance Rules v5.0","source_url":"https://www.cdisc.org/standards/foundational/adam/adam-conformance-rules-v5-0","source_version":"1","content_hash":"b092f404672fe775fa3081d29ab55222a864f5357ab73efdffd26593d2981043","license":"CC-BY-4.0","p21_id_equivalent":null,"fetched_at":null,"scope":{"classes":"ALL","domains":[],"exclude_domains":[]},"check_tree":{"narrative":"","condition_success":"","condition_failure":"Variable name matches a standard variable defined in the ADaM-IG"}}
{"id":"180","authority":"CDISC","standard":"ADaM-IG","standard_ver":"1.0","severity":"Medium","message":"SRCDOM has a value that is not an SDTM domain name or null","source_document":"CDISC ADaM Conformance Rules v5.0","source_url":"https://www.cdisc.org/standards/foundational/adam/adam-conformance-rules-v5-0","source_version":"1","content_hash":"0b191b888c3bd569477e1b1153e688683039103e8d031e723a2527e4589556d5","license":"CC-BY-4.0","p21_id_equivalent":null,"fetched_at":null,"scope":{"classes":"BASIC DATA STRUCTURE","domains":[],"exclude_domains":[]},"check_tree":{"narrative":"","condition_success":"","condition_failure":"SRCDOM is present"}}
{"id":"181","authority":"CDISC","standard":"ADaM-IG","standard_ver":"1.0,1.1,1.2,1.3","severity":"Medium","message":"BASETYPE is not present, BASE is populated, and BASE is not equal to AVAL where ABLFL is equal to Y for a given value of PARAMCD for a subject","source_document":"CDISC ADaM Conformance Rules v5.0","source_url":"https://www.cdisc.org/standards/foundational/adam/adam-conformance-rules-v5-0","source_version":"1","content_hash":"f807dfdf145d32f012d7611c8ad4654ad37ba2d911f96082aacdf51bc64df392","license":"CC-BY-4.0","p21_id_equivalent":null,"fetched_at":null,"scope":{"classes":"BASIC DATA STRUCTURE","domains":[],"exclude_domains":[]},"check_tree":{"narrative":"","condition_success":"","condition_failure":"BASETYPE is not present and BASE is populated"}}
{"id":"182","authority":"CDISC","standard":"ADaM-IG","standard_ver":"1.0,1.1,1.2,1.3","severity":"Medium","message":"BASETYPE is not present, BTOXGR is populated, and BTOXGR is not equal to ATOXGR where ABLFL is equal to Y for a given value of PARAMCD for a subject","source_document":"CDISC ADaM Conformance Rules v5.0","source_url":"https://www.cdisc.org/standards/foundational/adam/adam-conformance-rules-v5-0","source_version":"1","content_hash":"8c240e878e49779f9ca33b289c44264f51f6740968613441a43f1573aa1e7643","license":"CC-BY-4.0","p21_id_equivalent":null,"fetched_at":null,"scope":{"classes":"BASIC DATA STRUCTURE","domains":[],"exclude_domains":[]},"check_tree":{"narrative":"","condition_success":"","condition_failure":"BASETYPE is not present and BTOXGR is populated"}}
{"id":"183","authority":"CDISC","standard":"ADaM-IG","standard_ver":"1.0,1.1,1.2,1.3","severity":"Medium","message":"BASETYPE is not present, BNRIND is populated, and BNRIND is not equal to ANRIND where ABLFL is equal to Y for a given value of PARAMCD for a subject","source_document":"CDISC ADaM Conformance Rules v5.0","source_url":"https://www.cdisc.org/standards/foundational/adam/adam-conformance-rules-v5-0","source_version":"1","content_hash":"88097b2f649dddc014a49cf5d06f273233a56a2b3acbc9e837625d1ec7ffbdb5","license":"CC-BY-4.0","p21_id_equivalent":null,"fetched_at":null,"scope":{"classes":"BASIC DATA STRUCTURE","domains":[],"exclude_domains":[]},"check_tree":{"narrative":"","condition_success":"","condition_failure":"BASETYPE is not present and BNRIND is populated"}}
{"id":"19","authority":"CDISC","standard":"ADaM-IG","standard_ver":"1.0,1.1,1.2,1.3","severity":"Medium","message":"COMPLFL is present and has a value that is not Y or N","source_document":"CDISC ADaM Conformance Rules v5.0","source_url":"https://www.cdisc.org/standards/foundational/adam/adam-conformance-rules-v5-0","source_version":"1","content_hash":"0127649702d9b0a77a4f1ce68756981071e01fd39bc5a7a453c3f5b9b80ac77f","license":"CC-BY-4.0","p21_id_equivalent":null,"fetched_at":null,"scope":{"classes":"SUBJECT LEVEL ANALYSIS DATASET","domains":[],"exclude_domains":[]},"check_tree":{"all":[{"operator":"non_empty","name":"COMPLFL"},{"operator":"is_not_contained_by","name":"COMPLFL","value":["Y","N"]}]}}
{"id":"194","authority":"CDISC","standard":"ADaM-IG","standard_ver":"1.0,1.1,1.2,1.3","severity":"Medium","message":"PARAM is not present","source_document":"CDISC ADaM Conformance Rules v5.0","source_url":"https://www.cdisc.org/standards/foundational/adam/adam-conformance-rules-v5-0","source_version":"1","content_hash":"c24dbb598704850823765da47e4ffee0dd9c6e1dd6c3bf87bcc3219556778a2d","license":"CC-BY-4.0","p21_id_equivalent":null,"fetched_at":null,"scope":{"classes":"BASIC DATA STRUCTURE","domains":[],"exclude_domains":[]},"check_tree":{"all":[{"name":"PARAM","operator":"not_exists"}]}}
{"id":"195","authority":"CDISC","standard":"ADaM-IG","standard_ver":"1.0,1.1,1.2,1.3","severity":"Medium","message":"PARAMCD is not present","source_document":"CDISC ADaM Conformance Rules v5.0","source_url":"https://www.cdisc.org/standards/foundational/adam/adam-conformance-rules-v5-0","source_version":"1","content_hash":"53b2c2240ca460fc56157d5f1e375f7cf328a4736086d4264f9dc5c2b071afe3","license":"CC-BY-4.0","p21_id_equivalent":null,"fetched_at":null,"scope":{"classes":"BASIC DATA STRUCTURE","domains":[],"exclude_domains":[]},"check_tree":{"all":[{"name":"PARAMCD","operator":"not_exists"}]}}
{"id":"196","authority":"CDISC","standard":"ADaM-IG","standard_ver":"1.0,1.1,1.2,1.3","severity":"Medium","message":"PARAM is not populated","source_document":"CDISC ADaM Conformance Rules v5.0","source_url":"https://www.cdisc.org/standards/foundational/adam/adam-conformance-rules-v5-0","source_version":"1","content_hash":"bba5764e62cf6ef34b6f1ce710c9e52cfc5f91754c59608825b15225a40fc148","license":"CC-BY-4.0","p21_id_equivalent":null,"fetched_at":null,"scope":{"classes":"BASIC DATA STRUCTURE","domains":[],"exclude_domains":[]},"check_tree":{"operator":"empty","name":"PARAM"}}
{"id":"197","authority":"CDISC","standard":"ADaM-IG","standard_ver":"1.0,1.1,1.2,1.3","severity":"Medium","message":"PARAMCD is not populated","source_document":"CDISC ADaM Conformance Rules v5.0","source_url":"https://www.cdisc.org/standards/foundational/adam/adam-conformance-rules-v5-0","source_version":"1","content_hash":"f62f4cc814094944038378023196a8b107f994804fd186d6909eac8a5b012a80","license":"CC-BY-4.0","p21_id_equivalent":null,"fetched_at":null,"scope":{"classes":"BASIC DATA STRUCTURE","domains":[],"exclude_domains":[]},"check_tree":{"operator":"empty","name":"PARAMCD"}}
{"id":"198","authority":"CDISC","standard":"ADaM-IG","standard_ver":"1.0,1.1,1.2,1.3","severity":"Medium","message":"AVAL is not present and AVALC is not present","source_document":"CDISC ADaM Conformance Rules v5.0","source_url":"https://www.cdisc.org/standards/foundational/adam/adam-conformance-rules-v5-0","source_version":"1","content_hash":"af900ff0374367724a201659ff175c48d019a98ec3ac4e556dda273101c79fb2","license":"CC-BY-4.0","p21_id_equivalent":null,"fetched_at":null,"scope":{"classes":"BASIC DATA STRUCTURE","domains":[],"exclude_domains":[]},"check_tree":{"narrative":"","condition_success":"","condition_failure":""}}
{"id":"199","authority":"CDISC","standard":"ADaM-IG","standard_ver":"1.0,1.1,1.2,1.3","severity":"Medium","message":"A variable is present in ADaM with the same name as a variable present in SDTM but the variables do not have identical data types","source_document":"CDISC ADaM Conformance Rules v5.0","source_url":"https://www.cdisc.org/standards/foundational/adam/adam-conformance-rules-v5-0","source_version":"1","content_hash":"c5508dfd6ddaef85fc93b8f1ba9492a526d3546ca1e7592222c9fccf73eb2b0b","license":"CC-BY-4.0","p21_id_equivalent":null,"fetched_at":null,"scope":{"classes":"ALL","domains":[],"exclude_domains":[]},"check_tree":{"narrative":"","condition_success":"","condition_failure":"A variable is present in ADaM with the same name as a variable present in SDTM"}}
{"id":"2","authority":"CDISC","standard":"ADaM-IG","standard_ver":"1.0,1.1,1.2,1.3","severity":"Medium","message":"A variable is present in ADaM with the same name as a variable present in SDTM but the variables do not have identical labels","source_document":"CDISC ADaM Conformance Rules v5.0","source_url":"https://www.cdisc.org/standards/foundational/adam/adam-conformance-rules-v5-0","source_version":"1","content_hash":"c5508dfd6ddaef85fc93b8f1ba9492a526d3546ca1e7592222c9fccf73eb2b0b","license":"CC-BY-4.0","p21_id_equivalent":null,"fetched_at":null,"scope":{"classes":"ALL","domains":[],"exclude_domains":[]},"check_tree":{"narrative":"","condition_success":"","condition_failure":"A variable is present in ADaM with the same name as a variable present in SDTM"}}
{"id":"20","authority":"CDISC","standard":"ADaM-IG","standard_ver":"1.0,1.1,1.2,1.3","severity":"Medium","message":"FASFL is present and has a value that is not Y or N","source_document":"CDISC ADaM Conformance Rules v5.0","source_url":"https://www.cdisc.org/standards/foundational/adam/adam-conformance-rules-v5-0","source_version":"1","content_hash":"ade7158c15efe0fe273b80a8a64e8f02d17e713bdbe8541cde99de5806ac4f7a","license":"CC-BY-4.0","p21_id_equivalent":null,"fetched_at":null,"scope":{"classes":"SUBJECT LEVEL ANALYSIS DATASET","domains":[],"exclude_domains":[]},"check_tree":{"all":[{"operator":"non_empty","name":"FASFL"},{"operator":"is_not_contained_by","name":"FASFL","value":["Y","N"]}]}}
{"id":"200","authority":"CDISC","standard":"ADaM-IG","standard_ver":"1.0,1.1,1.2,1.3","severity":"Medium","message":"A variable is present in ADaM with the same name as a variable defined in the ADaM IG but the variables do not have identical data types","source_document":"CDISC ADaM Conformance Rules v5.0","source_url":"https://www.cdisc.org/standards/foundational/adam/adam-conformance-rules-v5-0","source_version":"1","content_hash":"1647c75cbbc46f8e2cffbf37660f47e7bd2771b55f198ffb895453c838badf85","license":"CC-BY-4.0","p21_id_equivalent":null,"fetched_at":null,"scope":{"classes":"ALL","domains":[],"exclude_domains":[]},"check_tree":{"narrative":"","condition_success":"","condition_failure":"A variable is present in ADaM with the same name as a variable present in ADaM IG"}}
{"id":"201","authority":"CDISC","standard":"ADaM-IG","standard_ver":"1.0,1.1,1.2,1.3","severity":"Medium","message":"TRTAGyN is present and TRTAGy is not present","source_document":"CDISC ADaM Conformance Rules v5.0","source_url":"https://www.cdisc.org/standards/foundational/adam/adam-conformance-rules-v5-0","source_version":"1","content_hash":"22c0e0685b788b82f27d0ceaeb7ee391c3a132ff9a7435c351c5b4cf1b065e22","license":"CC-BY-4.0","p21_id_equivalent":null,"fetched_at":null,"scope":{"classes":"BASIC DATA STRUCTURE","domains":[],"exclude_domains":[]},"check_tree":{"expand":"y","all":[{"name":"TRTAGyN","operator":"exists"},{"name":"TRTAGy","operator":"not_exists"}]}}
{"id":"204","authority":"CDISC","standard":"ADaM-IG","standard_ver":"1.0,1.1,1.2,1.3","severity":"Medium","message":"The value of ADSL.USUBJID is equal to the value of DM.USUBJID and ADSL.AGE is not equal to DM.AGE","source_document":"CDISC ADaM Conformance Rules v5.0","source_url":"https://www.cdisc.org/standards/foundational/adam/adam-conformance-rules-v5-0","source_version":"1","content_hash":"59dd9095d376371e6846c82540d002937adaaa263f9df397984185f5796f06b6","license":"CC-BY-4.0","p21_id_equivalent":null,"fetched_at":null,"scope":{"classes":"SUBJECT LEVEL ANALYSIS DATASET","domains":[],"exclude_domains":[]},"check_tree":{"narrative":"","condition_success":"","condition_failure":"The value of ADSL.USUBJID is equal to the value of DM.USUBJID"}}
{"id":"205","authority":"CDISC","standard":"ADaM-IG","standard_ver":"1.0,1.1,1.2,1.3","severity":"Medium","message":"The value of ADSL.USUBJID is equal to the value of DM.USUBJID and ADSL.AGEU is not equal to DM.AGEU","source_document":"CDISC ADaM Conformance Rules v5.0","source_url":"https://www.cdisc.org/standards/foundational/adam/adam-conformance-rules-v5-0","source_version":"1","content_hash":"59dd9095d376371e6846c82540d002937adaaa263f9df397984185f5796f06b6","license":"CC-BY-4.0","p21_id_equivalent":null,"fetched_at":null,"scope":{"classes":"SUBJECT LEVEL ANALYSIS DATASET","domains":[],"exclude_domains":[]},"check_tree":{"narrative":"","condition_success":"","condition_failure":"The value of ADSL.USUBJID is equal to the value of DM.USUBJID"}}
{"id":"206","authority":"CDISC","standard":"ADaM-IG","standard_ver":"1.0,1.1,1.2,1.3","severity":"Medium","message":"The value of ADSL.USUBJID is equal to the value of DM.USUBJID and ADSL.SEX is not equal to DM.SEX","source_document":"CDISC ADaM Conformance Rules v5.0","source_url":"https://www.cdisc.org/standards/foundational/adam/adam-conformance-rules-v5-0","source_version":"1","content_hash":"59dd9095d376371e6846c82540d002937adaaa263f9df397984185f5796f06b6","license":"CC-BY-4.0","p21_id_equivalent":null,"fetched_at":null,"scope":{"classes":"SUBJECT LEVEL ANALYSIS DATASET","domains":[],"exclude_domains":[]},"check_tree":{"narrative":"","condition_success":"","condition_failure":"The value of ADSL.USUBJID is equal to the value of DM.USUBJID"}}
{"id":"207","authority":"CDISC","standard":"ADaM-IG","standard_ver":"1.0,1.1,1.2,1.3","severity":"Medium","message":"The value of ADSL.USUBJID is equal to the value of DM.USUBJID and ADSL.RACE is not equal to DM.RACE","source_document":"CDISC ADaM Conformance Rules v5.0","source_url":"https://www.cdisc.org/standards/foundational/adam/adam-conformance-rules-v5-0","source_version":"1","content_hash":"59dd9095d376371e6846c82540d002937adaaa263f9df397984185f5796f06b6","license":"CC-BY-4.0","p21_id_equivalent":null,"fetched_at":null,"scope":{"classes":"SUBJECT LEVEL ANALYSIS DATASET","domains":[],"exclude_domains":[]},"check_tree":{"narrative":"","condition_success":"","condition_failure":"The value of ADSL.USUBJID is equal to the value of DM.USUBJID"}}
{"id":"208","authority":"CDISC","standard":"ADaM-IG","standard_ver":"1.0,1.1,1.2,1.3","severity":"Medium","message":"The value of ADSL.USUBJID is equal to the value of DM.USUBJID and ADSL.SUBJID is not equal to DM.SUBJID","source_document":"CDISC ADaM Conformance Rules v5.0","source_url":"https://www.cdisc.org/standards/foundational/adam/adam-conformance-rules-v5-0","source_version":"1","content_hash":"59dd9095d376371e6846c82540d002937adaaa263f9df397984185f5796f06b6","license":"CC-BY-4.0","p21_id_equivalent":null,"fetched_at":null,"scope":{"classes":"SUBJECT LEVEL ANALYSIS DATASET","domains":[],"exclude_domains":[]},"check_tree":{"narrative":"","condition_success":"","condition_failure":"The value of ADSL.USUBJID is equal to the value of DM.USUBJID"}}
{"id":"209","authority":"CDISC","standard":"ADaM-IG","standard_ver":"1.0,1.1,1.2,1.3","severity":"Medium","message":"The value of ADSL.USUBJID is equal to the value of DM.USUBJID and ADSL.SITEID is not equal to DM.SITEID","source_document":"CDISC ADaM Conformance Rules v5.0","source_url":"https://www.cdisc.org/standards/foundational/adam/adam-conformance-rules-v5-0","source_version":"1","content_hash":"59dd9095d376371e6846c82540d002937adaaa263f9df397984185f5796f06b6","license":"CC-BY-4.0","p21_id_equivalent":null,"fetched_at":null,"scope":{"classes":"SUBJECT LEVEL ANALYSIS DATASET","domains":[],"exclude_domains":[]},"check_tree":{"narrative":"","condition_success":"","condition_failure":"The value of ADSL.USUBJID is equal to the value of DM.USUBJID"}}
{"id":"21","authority":"CDISC","standard":"ADaM-IG","standard_ver":"1.0,1.1,1.2,1.3","severity":"Medium","message":"ITTFL is present and has a value that is not Y or N","source_document":"CDISC ADaM Conformance Rules v5.0","source_url":"https://www.cdisc.org/standards/foundational/adam/adam-conformance-rules-v5-0","source_version":"1","content_hash":"90521b87aa0dbe3ecc34e8ad126107598bb2af0f2208f807df58a1b85751de8b","license":"CC-BY-4.0","p21_id_equivalent":null,"fetched_at":null,"scope":{"classes":"SUBJECT LEVEL ANALYSIS DATASET","domains":[],"exclude_domains":[]},"check_tree":{"all":[{"operator":"non_empty","name":"ITTFL"},{"operator":"is_not_contained_by","name":"ITTFL","value":["Y","N"]}]}}
{"id":"210","authority":"CDISC","standard":"ADaM-IG","standard_ver":"1.0,1.1,1.2,1.3","severity":"Medium","message":"The value of ADSL.USUBJID is equal to the value of DM.USUBJID and ADSL.ARM is not equal to DM.ARM","source_document":"CDISC ADaM Conformance Rules v5.0","source_url":"https://www.cdisc.org/standards/foundational/adam/adam-conformance-rules-v5-0","source_version":"1","content_hash":"59dd9095d376371e6846c82540d002937adaaa263f9df397984185f5796f06b6","license":"CC-BY-4.0","p21_id_equivalent":null,"fetched_at":null,"scope":{"classes":"SUBJECT LEVEL ANALYSIS DATASET","domains":[],"exclude_domains":[]},"check_tree":{"narrative":"","condition_success":"","condition_failure":"The value of ADSL.USUBJID is equal to the value of DM.USUBJID"}}
{"id":"211","authority":"CDISC","standard":"ADaM-IG","standard_ver":"1.0,1.1,1.2,1.3","severity":"Medium","message":"ABLFN is not equal to 1 or null","source_document":"CDISC ADaM Conformance Rules v5.0","source_url":"https://www.cdisc.org/standards/foundational/adam/adam-conformance-rules-v5-0","source_version":"1","content_hash":"af900ff0374367724a201659ff175c48d019a98ec3ac4e556dda273101c79fb2","license":"CC-BY-4.0","p21_id_equivalent":null,"fetched_at":null,"scope":{"classes":"BASIC DATA STRUCTURE","domains":[],"exclude_domains":[]},"check_tree":{"narrative":"","condition_success":"","condition_failure":""}}
{"id":"212","authority":"CDISC","standard":"ADaM-IG","standard_ver":"1.0,1.1,1.2,1.3","severity":"Medium","message":"ANLzzFN is not equal to 1 or null where zz is a zero-padded two-digit integer [01-99]","source_document":"CDISC ADaM Conformance Rules v5.0","source_url":"https://www.cdisc.org/standards/foundational/adam/adam-conformance-rules-v5-0","source_version":"1","content_hash":"af900ff0374367724a201659ff175c48d019a98ec3ac4e556dda273101c79fb2","license":"CC-BY-4.0","p21_id_equivalent":null,"fetched_at":null,"scope":{"classes":"BASIC DATA STRUCTURE","domains":[],"exclude_domains":[]},"check_tree":{"narrative":"","condition_success":"","condition_failure":""}}
{"id":"22","authority":"CDISC","standard":"ADaM-IG","standard_ver":"1.0,1.1,1.2,1.3","severity":"Medium","message":"PPROTFL is present and has a value that is not Y or N","source_document":"CDISC ADaM Conformance Rules v5.0","source_url":"https://www.cdisc.org/standards/foundational/adam/adam-conformance-rules-v5-0","source_version":"1","content_hash":"c4ceb80f48832e7d76a499c431231dff136895066c02f2363b29ceeda7199c3a","license":"CC-BY-4.0","p21_id_equivalent":null,"fetched_at":null,"scope":{"classes":"SUBJECT LEVEL ANALYSIS DATASET","domains":[],"exclude_domains":[]},"check_tree":{"all":[{"operator":"non_empty","name":"PPROTFL"},{"operator":"is_not_contained_by","name":"PPROTFL","value":["Y","N"]}]}}
{"id":"221","authority":"CDISC","standard":"ADaM-IG","standard_ver":"1.0","severity":"Medium","message":"Within a given value of PARAMCD, there is more than one value of AVALCATy for a given value of AVAL","source_document":"CDISC ADaM Conformance Rules v5.0","source_url":"https://www.cdisc.org/standards/foundational/adam/adam-conformance-rules-v5-0","source_version":"1","content_hash":"dc6d81239c00abc4f8ac720071adf56ff8932fe7ca577c89c94317a3cbac84b3","license":"CC-BY-4.0","p21_id_equivalent":null,"fetched_at":null,"scope":{"classes":"BASIC DATA STRUCTURE","domains":[],"exclude_domains":[]},"check_tree":{"narrative":"","condition_success":"","condition_failure":"Within a given value of PARAMCD"}}
{"id":"222","authority":"CDISC","standard":"ADaM-IG","standard_ver":"1.0","severity":"Medium","message":"Within a given value of PARAMCD, there is more than one value of BASECATy for a given value of BASE and y","source_document":"CDISC ADaM Conformance Rules v5.0","source_url":"https://www.cdisc.org/standards/foundational/adam/adam-conformance-rules-v5-0","source_version":"1","content_hash":"dc6d81239c00abc4f8ac720071adf56ff8932fe7ca577c89c94317a3cbac84b3","license":"CC-BY-4.0","p21_id_equivalent":null,"fetched_at":null,"scope":{"classes":"BASIC DATA STRUCTURE","domains":[],"exclude_domains":[]},"check_tree":{"narrative":"","condition_success":"","condition_failure":"Within a given value of PARAMCD"}}
{"id":"223","authority":"CDISC","standard":"ADaM-IG","standard_ver":"1.0,1.1,1.2,1.3","severity":"Medium","message":"Within a given value of PARAMCD for a subject, CHG is populated and is not equal to AVAL - BASE","source_document":"CDISC ADaM Conformance Rules v5.0","source_url":"https://www.cdisc.org/standards/foundational/adam/adam-conformance-rules-v5-0","source_version":"1","content_hash":"e014350e56b87477a22553a65633d99c76d2653289679c42ff6dc61f4febe89c","license":"CC-BY-4.0","p21_id_equivalent":null,"fetched_at":null,"scope":{"classes":"BASIC DATA STRUCTURE","domains":[],"exclude_domains":[]},"check_tree":{"operator":"is_not_diff","name":"CHG","minuend":"AVAL","subtrahend":"BASE"}}
{"id":"224","authority":"CDISC","standard":"ADaM-IG","standard_ver":"1.0","severity":"Medium","message":"Within a given value of PARAMCD, there is more than one value of CHGCATy for a given value of CHG and y","source_document":"CDISC ADaM Conformance Rules v5.0","source_url":"https://www.cdisc.org/standards/foundational/adam/adam-conformance-rules-v5-0","source_version":"1","content_hash":"dc6d81239c00abc4f8ac720071adf56ff8932fe7ca577c89c94317a3cbac84b3","license":"CC-BY-4.0","p21_id_equivalent":null,"fetched_at":null,"scope":{"classes":"BASIC DATA STRUCTURE","domains":[],"exclude_domains":[]},"check_tree":{"narrative":"","condition_success":"","condition_failure":"Within a given value of PARAMCD"}}
{"id":"225","authority":"CDISC","standard":"ADaM-IG","standard_ver":"1.0,1.1,1.2,1.3","severity":"Medium","message":"Within a given value of PARAMCD for a subject, PCHG is populated and is not equal to ((AVAL - BASE)/BASE)*100","source_document":"CDISC ADaM Conformance Rules v5.0","source_url":"https://www.cdisc.org/standards/foundational/adam/adam-conformance-rules-v5-0","source_version":"1","content_hash":"499c26238ea16df917febbd6993714d49a2b33c4b4b475f09345b6b798696e10","license":"CC-BY-4.0","p21_id_equivalent":null,"fetched_at":null,"scope":{"classes":"BASIC DATA STRUCTURE","domains":[],"exclude_domains":[]},"check_tree":{"operator":"is_not_pct_diff","name":"PCHG","minuend":"AVAL","subtrahend":"BASE"}}
{"id":"226","authority":"CDISC","standard":"ADaM-IG","standard_ver":"1.0","severity":"Medium","message":"Within a given value of PARAMCD, there is more than one value of PCHGCATy for a given value of PCHG and y","source_document":"CDISC ADaM Conformance Rules v5.0","source_url":"https://www.cdisc.org/standards/foundational/adam/adam-conformance-rules-v5-0","source_version":"1","content_hash":"dc6d81239c00abc4f8ac720071adf56ff8932fe7ca577c89c94317a3cbac84b3","license":"CC-BY-4.0","p21_id_equivalent":null,"fetched_at":null,"scope":{"classes":"BASIC DATA STRUCTURE","domains":[],"exclude_domains":[]},"check_tree":{"narrative":"","condition_success":"","condition_failure":"Within a given value of PARAMCD"}}
{"id":"227","authority":"CDISC","standard":"ADaM-IG","standard_ver":"1.0","severity":"Medium","message":"There is more than one value of TRTSEQP for a given value of TRTSEQPN","source_document":"CDISC ADaM Conformance Rules v5.0","source_url":"https://www.cdisc.org/standards/foundational/adam/adam-conformance-rules-v5-0","source_version":"1","content_hash":"f2100a8e3e9a55e9bab5af8cda04426d88bb4c518d4bda5f64cc3090e28c7675","license":"CC-BY-4.0","p21_id_equivalent":null,"fetched_at":null,"scope":{"classes":"SUBJECT LEVEL ANALYSIS DATASET","domains":[],"exclude_domains":[]},"check_tree":{"all":[{"name":"TRTSEQPN","operator":"is_not_unique_relationship","value":{"related_name":"TRTSEQP"}}]}}
{"id":"228","authority":"CDISC","standard":"ADaM-IG","standard_ver":"1.0","severity":"Medium","message":"There is more than one value of TRTSEQPN for a given value of TRTSEQP","source_document":"CDISC ADaM Conformance Rules v5.0","source_url":"https://www.cdisc.org/standards/foundational/adam/adam-conformance-rules-v5-0","source_version":"1","content_hash":"97f7e2bfd213cb233c99ccae6be1211274e00b0440ff1474ed725fcfa97b9304","license":"CC-BY-4.0","p21_id_equivalent":null,"fetched_at":null,"scope":{"classes":"SUBJECT LEVEL ANALYSIS DATASET","domains":[],"exclude_domains":[]},"check_tree":{"all":[{"name":"TRTSEQP","operator":"is_not_unique_relationship","value":{"related_name":"TRTSEQPN"}}]}}
{"id":"229","authority":"CDISC","standard":"ADaM-IG","standard_ver":"1.0","severity":"Medium","message":"There is more than one value of TRTSEQA for a given value of TRTSEQAN","source_document":"CDISC ADaM Conformance Rules v5.0","source_url":"https://www.cdisc.org/standards/foundational/adam/adam-conformance-rules-v5-0","source_version":"1","content_hash":"b3e59d4d3695ad54fe05ae24d3d427eca2a9e29c69b548e20b7fbd83d73352ba","license":"CC-BY-4.0","p21_id_equivalent":null,"fetched_at":null,"scope":{"classes":"SUBJECT LEVEL ANALYSIS DATASET","domains":[],"exclude_domains":[]},"check_tree":{"all":[{"name":"TRTSEQAN","operator":"is_not_unique_relationship","value":{"related_name":"TRTSEQA"}}]}}
{"id":"23","authority":"CDISC","standard":"ADaM-IG","standard_ver":"1.0,1.1,1.2,1.3","severity":"Medium","message":"SAFFL is present and has a value that is not Y or N","source_document":"CDISC ADaM Conformance Rules v5.0","source_url":"https://www.cdisc.org/standards/foundational/adam/adam-conformance-rules-v5-0","source_version":"1","content_hash":"ab7933b7d10c8d111c32ec7397fdbabf70c4fa31cc9d434d17c3d76425234328","license":"CC-BY-4.0","p21_id_equivalent":null,"fetched_at":null,"scope":{"classes":"SUBJECT LEVEL ANALYSIS DATASET","domains":[],"exclude_domains":[]},"check_tree":{"all":[{"operator":"non_empty","name":"SAFFL"},{"operator":"is_not_contained_by","name":"SAFFL","value":["Y","N"]}]}}
{"id":"230","authority":"CDISC","standard":"ADaM-IG","standard_ver":"1.0","severity":"Medium","message":"There is more than one value of TRTSEQAN for a given value of TRTSEQA","source_document":"CDISC ADaM Conformance Rules v5.0","source_url":"https://www.cdisc.org/standards/foundational/adam/adam-conformance-rules-v5-0","source_version":"1","content_hash":"503d5fef0c3fe12f56b62fa06f364959220d722408b2867a1136ba9fecfe78de","license":"CC-BY-4.0","p21_id_equivalent":null,"fetched_at":null,"scope":{"classes":"SUBJECT LEVEL ANALYSIS DATASET","domains":[],"exclude_domains":[]},"check_tree":{"all":[{"name":"TRTSEQA","operator":"is_not_unique_relationship","value":{"related_name":"TRTSEQAN"}}]}}
{"id":"231","authority":"CDISC","standard":"ADaM-IG","standard_ver":"1.0","severity":"Medium","message":"Within a given value of TRTxxP, there is more than one value of TRxxPGy, where xx is an integer [01-99, zero-padded] and y is a single-digit integer [1-9]","source_document":"CDISC ADaM Conformance Rules v5.0","source_url":"https://www.cdisc.org/standards/foundational/adam/adam-conformance-rules-v5-0","source_version":"1","content_hash":"af900ff0374367724a201659ff175c48d019a98ec3ac4e556dda273101c79fb2","license":"CC-BY-4.0","p21_id_equivalent":null,"fetched_at":null,"scope":{"classes":"SUBJECT LEVEL ANALYSIS DATASET","domains":[],"exclude_domains":[]},"check_tree":{"narrative":"","condition_success":"","condition_failure":""}}
{"id":"232","authority":"CDISC","standard":"ADaM-IG","standard_ver":"1.0","severity":"Medium","message":"There is more than one value of TRxxPGy for a given value of TRxxPGyN, where xx is an integer [01-99, zero-padded] and y is a single-digit integer [1-9]","source_document":"CDISC ADaM Conformance Rules v5.0","source_url":"https://www.cdisc.org/standards/foundational/adam/adam-conformance-rules-v5-0","source_version":"1","content_hash":"af900ff0374367724a201659ff175c48d019a98ec3ac4e556dda273101c79fb2","license":"CC-BY-4.0","p21_id_equivalent":null,"fetched_at":null,"scope":{"classes":"SUBJECT LEVEL ANALYSIS DATASET","domains":[],"exclude_domains":[]},"check_tree":{"narrative":"","condition_success":"","condition_failure":""}}
{"id":"233","authority":"CDISC","standard":"ADaM-IG","standard_ver":"1.0","severity":"Medium","message":"There is more than one value of TRxxPGyN for a given value of TRxxPGy, where xx is an integer [01-99, zero-padded] and y is a single-digit integer [1-9]","source_document":"CDISC ADaM Conformance Rules v5.0","source_url":"https://www.cdisc.org/standards/foundational/adam/adam-conformance-rules-v5-0","source_version":"1","content_hash":"af900ff0374367724a201659ff175c48d019a98ec3ac4e556dda273101c79fb2","license":"CC-BY-4.0","p21_id_equivalent":null,"fetched_at":null,"scope":{"classes":"SUBJECT LEVEL ANALYSIS DATASET","domains":[],"exclude_domains":[]},"check_tree":{"narrative":"","condition_success":"","condition_failure":""}}
{"id":"234","authority":"CDISC","standard":"ADaM-IG","standard_ver":"1.0","severity":"Medium","message":"Within a given value of TRTxxA, there is more than one value of TRxxAGy, where xx is an integer [01-99, zero-padded] and y is a single-digit integer [1-9]","source_document":"CDISC ADaM Conformance Rules v5.0","source_url":"https://www.cdisc.org/standards/foundational/adam/adam-conformance-rules-v5-0","source_version":"1","content_hash":"af900ff0374367724a201659ff175c48d019a98ec3ac4e556dda273101c79fb2","license":"CC-BY-4.0","p21_id_equivalent":null,"fetched_at":null,"scope":{"classes":"SUBJECT LEVEL ANALYSIS DATASET","domains":[],"exclude_domains":[]},"check_tree":{"narrative":"","condition_success":"","condition_failure":""}}
{"id":"235","authority":"CDISC","standard":"ADaM-IG","standard_ver":"1.0","severity":"Medium","message":"There is more than one value of TRxxAGy for a given value of TRxxAGyN, where xx is an integer [01-99, zero-padded] and y is a single-digit integer [1-9]","source_document":"CDISC ADaM Conformance Rules v5.0","source_url":"https://www.cdisc.org/standards/foundational/adam/adam-conformance-rules-v5-0","source_version":"1","content_hash":"af900ff0374367724a201659ff175c48d019a98ec3ac4e556dda273101c79fb2","license":"CC-BY-4.0","p21_id_equivalent":null,"fetched_at":null,"scope":{"classes":"SUBJECT LEVEL ANALYSIS DATASET","domains":[],"exclude_domains":[]},"check_tree":{"narrative":"","condition_success":"","condition_failure":""}}
{"id":"236","authority":"CDISC","standard":"ADaM-IG","standard_ver":"1.0","severity":"Medium","message":"There is more than one value of TRxxAGyN for a given value of TRxxAGy, where xx is an integer [01-99, zero-padded] and y is a single-digit integer [1-9]","source_document":"CDISC ADaM Conformance Rules v5.0","source_url":"https://www.cdisc.org/standards/foundational/adam/adam-conformance-rules-v5-0","source_version":"1","content_hash":"af900ff0374367724a201659ff175c48d019a98ec3ac4e556dda273101c79fb2","license":"CC-BY-4.0","p21_id_equivalent":null,"fetched_at":null,"scope":{"classes":"SUBJECT LEVEL ANALYSIS DATASET","domains":[],"exclude_domains":[]},"check_tree":{"narrative":"","condition_success":"","condition_failure":""}}
{"id":"237","authority":"CDISC","standard":"ADaM-IG","standard_ver":"1.0","severity":"Medium","message":"There is more than one value of TRTPGy for a given value of TRTPGyN, where y is a single-digit integer [1-9]","source_document":"CDISC ADaM Conformance Rules v5.0","source_url":"https://www.cdisc.org/standards/foundational/adam/adam-conformance-rules-v5-0","source_version":"1","content_hash":"af900ff0374367724a201659ff175c48d019a98ec3ac4e556dda273101c79fb2","license":"CC-BY-4.0","p21_id_equivalent":null,"fetched_at":null,"scope":{"classes":"BASIC DATA STRUCTURE","domains":[],"exclude_domains":[]},"check_tree":{"narrative":"","condition_success":"","condition_failure":""}}
{"id":"238","authority":"CDISC","standard":"ADaM-IG","standard_ver":"1.0","severity":"Medium","message":"There is more than one value of TRTPGyN for a given value of TRTPGy, where y is a single-digit integer [1-9]","source_document":"CDISC ADaM Conformance Rules v5.0","source_url":"https://www.cdisc.org/standards/foundational/adam/adam-conformance-rules-v5-0","source_version":"1","content_hash":"af900ff0374367724a201659ff175c48d019a98ec3ac4e556dda273101c79fb2","license":"CC-BY-4.0","p21_id_equivalent":null,"fetched_at":null,"scope":{"classes":"BASIC DATA STRUCTURE","domains":[],"exclude_domains":[]},"check_tree":{"narrative":"","condition_success":"","condition_failure":""}}
{"id":"239","authority":"CDISC","standard":"ADaM-IG","standard_ver":"1.0","severity":"Medium","message":"TRTPGy is present and TRTA is present but TRTAGy is not present, where y is a single-digit integer [1-9]","source_document":"CDISC ADaM Conformance Rules v5.0","source_url":"https://www.cdisc.org/standards/foundational/adam/adam-conformance-rules-v5-0","source_version":"1","content_hash":"89d58c43674dfd7fed6697d64c1ef7793a9769ef5dadf059cffab4b1955b1b25","license":"CC-BY-4.0","p21_id_equivalent":null,"fetched_at":null,"scope":{"classes":"BASIC DATA STRUCTURE","domains":[],"exclude_domains":[]},"check_tree":{"narrative":"","condition_success":"","condition_failure":"TRTA is present"}}
{"id":"24","authority":"CDISC","standard":"ADaM-IG","standard_ver":"1.0,1.1,1.2,1.3","severity":"Medium","message":"RANDFL is present and has a value that is not Y or N","source_document":"CDISC ADaM Conformance Rules v5.0","source_url":"https://www.cdisc.org/standards/foundational/adam/adam-conformance-rules-v5-0","source_version":"1","content_hash":"173ccb82f1487e021028194f007dd170d13a82bdc6827b9ee7ccf93441253248","license":"CC-BY-4.0","p21_id_equivalent":null,"fetched_at":null,"scope":{"classes":"SUBJECT LEVEL ANALYSIS DATASET","domains":[],"exclude_domains":[]},"check_tree":{"all":[{"operator":"non_empty","name":"RANDFL"},{"operator":"is_not_contained_by","name":"RANDFL","value":["Y","N"]}]}}
{"id":"240","authority":"CDISC","standard":"ADaM-IG","standard_ver":"1.0","severity":"Medium","message":"There is more than one value of TRTAGy for a given value of TRTAGyN, where y is a single-digit integer [1-9]","source_document":"CDISC ADaM Conformance Rules v5.0","source_url":"https://www.cdisc.org/standards/foundational/adam/adam-conformance-rules-v5-0","source_version":"1","content_hash":"af900ff0374367724a201659ff175c48d019a98ec3ac4e556dda273101c79fb2","license":"CC-BY-4.0","p21_id_equivalent":null,"fetched_at":null,"scope":{"classes":"BASIC DATA STRUCTURE","domains":[],"exclude_domains":[]},"check_tree":{"narrative":"","condition_success":"","condition_failure":""}}
{"id":"241","authority":"CDISC","standard":"ADaM-IG","standard_ver":"1.0","severity":"Medium","message":"There is more than one value of TRTAGyN for a given value of TRTAGy, where y is a single-digit integer [1-9]","source_document":"CDISC ADaM Conformance Rules v5.0","source_url":"https://www.cdisc.org/standards/foundational/adam/adam-conformance-rules-v5-0","source_version":"1","content_hash":"af900ff0374367724a201659ff175c48d019a98ec3ac4e556dda273101c79fb2","license":"CC-BY-4.0","p21_id_equivalent":null,"fetched_at":null,"scope":{"classes":"BASIC DATA STRUCTURE","domains":[],"exclude_domains":[]},"check_tree":{"narrative":"","condition_success":"","condition_failure":""}}
{"id":"242","authority":"CDISC","standard":"ADaM-IG","standard_ver":"1.0","severity":"Medium","message":"There is more than one value of TRTxxAN for a given value of TRTxxA, where xx is an integer [01-99, zero-padded]","source_document":"CDISC ADaM Conformance Rules v5.0","source_url":"https://www.cdisc.org/standards/foundational/adam/adam-conformance-rules-v5-0","source_version":"1","content_hash":"af900ff0374367724a201659ff175c48d019a98ec3ac4e556dda273101c79fb2","license":"CC-BY-4.0","p21_id_equivalent":null,"fetched_at":null,"scope":{"classes":"SUBJECT LEVEL ANALYSIS DATASET","domains":[],"exclude_domains":[]},"check_tree":{"narrative":"","condition_success":"","condition_failure":""}}
{"id":"243","authority":"CDISC","standard":"ADaM-IG","standard_ver":"1.0","severity":"Medium","message":"There is more than one value of TRTxxA for a given value of TRTxxAN, where xx is an integer [01-99, zero-padded]","source_document":"CDISC ADaM Conformance Rules v5.0","source_url":"https://www.cdisc.org/standards/foundational/adam/adam-conformance-rules-v5-0","source_version":"1","content_hash":"af900ff0374367724a201659ff175c48d019a98ec3ac4e556dda273101c79fb2","license":"CC-BY-4.0","p21_id_equivalent":null,"fetched_at":null,"scope":{"classes":"SUBJECT LEVEL ANALYSIS DATASET","domains":[],"exclude_domains":[]},"check_tree":{"narrative":"","condition_success":"","condition_failure":""}}
{"id":"25","authority":"CDISC","standard":"ADaM-IG","standard_ver":"1.0,1.1,1.2,1.3","severity":"Medium","message":"ENRLFL is present and has a value that is not Y or N","source_document":"CDISC ADaM Conformance Rules v5.0","source_url":"https://www.cdisc.org/standards/foundational/adam/adam-conformance-rules-v5-0","source_version":"1","content_hash":"07e305862d5e580a48ab3a2d00e2b0957fe66b8e96f568e780c095911622a04a","license":"CC-BY-4.0","p21_id_equivalent":null,"fetched_at":null,"scope":{"classes":"SUBJECT LEVEL ANALYSIS DATASET","domains":[],"exclude_domains":[]},"check_tree":{"all":[{"operator":"non_empty","name":"ENRLFL"},{"operator":"is_not_contained_by","name":"ENRLFL","value":["Y","N"]}]}}
{"id":"252","authority":"CDISC","standard":"ADaM-IG","standard_ver":"1.0,1.1,1.2,1.3","severity":"Medium","message":"AVAL is present or AVALC is present","source_document":"CDISC ADaM Conformance Rules v5.0","source_url":"https://www.cdisc.org/standards/foundational/adam/adam-conformance-rules-v5-0","source_version":"1","content_hash":"af900ff0374367724a201659ff175c48d019a98ec3ac4e556dda273101c79fb2","license":"CC-BY-4.0","p21_id_equivalent":null,"fetched_at":null,"scope":{"classes":"OCCURRENCE DATA STRUCTURE","domains":[],"exclude_domains":[]},"check_tree":{"narrative":"","condition_success":"","condition_failure":""}}
{"id":"254","authority":"CDISC","standard":"ADaM-IG","standard_ver":"1.0,1.1,1.2,1.3","severity":"Medium","message":"PARAM is present","source_document":"CDISC ADaM Conformance Rules v5.0","source_url":"https://www.cdisc.org/standards/foundational/adam/adam-conformance-rules-v5-0","source_version":"1","content_hash":"af900ff0374367724a201659ff175c48d019a98ec3ac4e556dda273101c79fb2","license":"CC-BY-4.0","p21_id_equivalent":null,"fetched_at":null,"scope":{"classes":"OCCURRENCE DATA STRUCTURE","domains":[],"exclude_domains":[]},"check_tree":{"narrative":"","condition_success":"","condition_failure":""}}
{"id":"256","authority":"CDISC","standard":"ADaM-IG","standard_ver":"1.0,1.1,1.2,1.3","severity":"Medium","message":"The values of USUBJID are not present in ADSL","source_document":"CDISC ADaM Conformance Rules v5.0","source_url":"https://www.cdisc.org/standards/foundational/adam/adam-conformance-rules-v5-0","source_version":"1","content_hash":"ff6153fbb545d137a6c5dfa4528d5ef6d178b26d96e9db5c8ce0dd2e4df5e7b7","license":"CC-BY-4.0","p21_id_equivalent":null,"fetched_at":null,"scope":{"classes":"ALL","domains":[],"exclude_domains":[]},"check_tree":{"narrative":"","condition_success":"","condition_failure":"USUBJID is present"}}
{"id":"26","authority":"CDISC","standard":"ADaM-IG","standard_ver":"1.0,1.1,1.2,1.3","severity":"Medium","message":"COMPLFN is present and has a value that is not 1 or 0","source_document":"CDISC ADaM Conformance Rules v5.0","source_url":"https://www.cdisc.org/standards/foundational/adam/adam-conformance-rules-v5-0","source_version":"1","content_hash":"499a9f986d9efae6a560622eb2c7dfbb64b85b0f223d9ad0b4e5a8ab255db79d","license":"CC-BY-4.0","p21_id_equivalent":null,"fetched_at":null,"scope":{"classes":"SUBJECT LEVEL ANALYSIS DATASET","domains":[],"exclude_domains":[]},"check_tree":{"narrative":"","condition_success":"","condition_failure":"COMPLFN is present"}}
{"id":"261","authority":"CDISC","standard":"ADaM-IG","standard_ver":"1.0,1.1,1.2,1.3","severity":"Medium","message":"AEDECOD is not present","source_document":"CDISC ADaM Conformance Rules v5.0","source_url":"https://www.cdisc.org/standards/foundational/adam/adam-conformance-rules-v5-0","source_version":"1","content_hash":"d52f499dc042dba67491d497446379d88db4467672ecdeb57a2c157fdd5efb6a","license":"CC-BY-4.0","p21_id_equivalent":null,"fetched_at":null,"scope":{"classes":["OCCURRENCE DATA STRUCTURE","ADVERSE EVENT"],"domains":[],"exclude_domains":[]},"check_tree":{"all":[{"name":"AEDECOD","operator":"not_exists"}]}}
{"id":"262","authority":"CDISC","standard":"ADaM-IG","standard_ver":"1.0,1.1,1.2,1.3","severity":"Medium","message":"AEBODSYS is not present","source_document":"CDISC ADaM Conformance Rules v5.0","source_url":"https://www.cdisc.org/standards/foundational/adam/adam-conformance-rules-v5-0","source_version":"1","content_hash":"8b0c13822c0097e7f2aece89add3273f1dbc8c59c34543ff15bf9ed4bda43564","license":"CC-BY-4.0","p21_id_equivalent":null,"fetched_at":null,"scope":{"classes":["OCCURRENCE DATA STRUCTURE","ADVERSE EVENT"],"domains":[],"exclude_domains":[]},"check_tree":{"all":[{"name":"AEBODSYS","operator":"not_exists"}]}}
{"id":"268","authority":"CDISC","standard":"ADaM-IG","standard_ver":"1.0,1.1,1.2,1.3","severity":"Medium","message":"ADURN is populated and ADURU is not populated","source_document":"CDISC ADaM Conformance Rules v5.0","source_url":"https://www.cdisc.org/standards/foundational/adam/adam-conformance-rules-v5-0","source_version":"1","content_hash":"84837fbee39ece25096664807607cf822e8101954afe727282fa28a9baf6b3b2","license":"CC-BY-4.0","p21_id_equivalent":null,"fetched_at":null,"scope":{"classes":"OCCURRENCE DATA STRUCTURE","domains":[],"exclude_domains":[]},"check_tree":{"all":[{"name":"ADURN","operator":"non_empty"},{"name":"ADURU","operator":"empty"}]}}
{"id":"269","authority":"CDISC","standard":"ADaM-IG","standard_ver":"1.0,1.1,1.2,1.3","severity":"Medium","message":"TRTEMFL is not equal to Y or null","source_document":"CDISC ADaM Conformance Rules v5.0","source_url":"https://www.cdisc.org/standards/foundational/adam/adam-conformance-rules-v5-0","source_version":"1","content_hash":"af900ff0374367724a201659ff175c48d019a98ec3ac4e556dda273101c79fb2","license":"CC-BY-4.0","p21_id_equivalent":null,"fetched_at":null,"scope":{"classes":"OCCURRENCE DATA STRUCTURE","domains":[],"exclude_domains":[]},"check_tree":{"narrative":"","condition_success":"","condition_failure":""}}
{"id":"27","authority":"CDISC","standard":"ADaM-IG","standard_ver":"1.0,1.1,1.2,1.3","severity":"Medium","message":"FASFN is present and has a value that is not 1 or 0","source_document":"CDISC ADaM Conformance Rules v5.0","source_url":"https://www.cdisc.org/standards/foundational/adam/adam-conformance-rules-v5-0","source_version":"1","content_hash":"7c42b8d2faf8acdf89d3bb76a02d84a3501467b51a1b69a19fc6ac407eb235e5","license":"CC-BY-4.0","p21_id_equivalent":null,"fetched_at":null,"scope":{"classes":"SUBJECT LEVEL ANALYSIS DATASET","domains":[],"exclude_domains":[]},"check_tree":{"narrative":"","condition_success":"","condition_failure":"FASFN is present"}}
{"id":"270","authority":"CDISC","standard":"ADaM-IG","standard_ver":"1.0,1.1,1.2,1.3","severity":"Medium","message":"PREFL is not equal to Y or null","source_document":"CDISC ADaM Conformance Rules v5.0","source_url":"https://www.cdisc.org/standards/foundational/adam/adam-conformance-rules-v5-0","source_version":"1","content_hash":"af900ff0374367724a201659ff175c48d019a98ec3ac4e556dda273101c79fb2","license":"CC-BY-4.0","p21_id_equivalent":null,"fetched_at":null,"scope":{"classes":"OCCURRENCE DATA STRUCTURE","domains":[],"exclude_domains":[]},"check_tree":{"narrative":"","condition_success":"","condition_failure":""}}
{"id":"271","authority":"CDISC","standard":"ADaM-IG","standard_ver":"1.0,1.1,1.2,1.3","severity":"Medium","message":"FUPFL is not equal to Y or null","source_document":"CDISC ADaM Conformance Rules v5.0","source_url":"https://www.cdisc.org/standards/foundational/adam/adam-conformance-rules-v5-0","source_version":"1","content_hash":"af900ff0374367724a201659ff175c48d019a98ec3ac4e556dda273101c79fb2","license":"CC-BY-4.0","p21_id_equivalent":null,"fetched_at":null,"scope":{"classes":"OCCURRENCE DATA STRUCTURE","domains":[],"exclude_domains":[]},"check_tree":{"narrative":"","condition_success":"","condition_failure":""}}
{"id":"272","authority":"CDISC","standard":"ADaM-IG","standard_ver":"1.0,1.1,1.2,1.3","severity":"Medium","message":"A variable with a prefix of AOCC and a suffix of FL is not equal to Y or null","source_document":"CDISC ADaM Conformance Rules v5.0","source_url":"https://www.cdisc.org/standards/foundational/adam/adam-conformance-rules-v5-0","source_version":"1","content_hash":"af900ff0374367724a201659ff175c48d019a98ec3ac4e556dda273101c79fb2","license":"CC-BY-4.0","p21_id_equivalent":null,"fetched_at":null,"scope":{"classes":"OCCURRENCE DATA STRUCTURE","domains":[],"exclude_domains":[]},"check_tree":{"narrative":"","condition_success":"","condition_failure":""}}
{"id":"278","authority":"CDISC","standard":"ADaM-IG","standard_ver":"1.0,1.1,1.2,1.3","severity":"Medium","message":"AESER is not present","source_document":"CDISC ADaM Conformance Rules v5.0","source_url":"https://www.cdisc.org/standards/foundational/adam/adam-conformance-rules-v5-0","source_version":"1","content_hash":"6fa40c7a2bcdce1a9566f52d351f557cfc53e926bcae0a332e33c5596e830175","license":"CC-BY-4.0","p21_id_equivalent":null,"fetched_at":null,"scope":{"classes":["OCCURRENCE DATA STRUCTURE","ADVERSE EVENT"],"domains":[],"exclude_domains":[]},"check_tree":{"all":[{"name":"AESER","operator":"not_exists"}]}}
{"id":"279","authority":"CDISC","standard":"ADaM-IG","standard_ver":"1.0,1.1,1.2,1.3","severity":"Medium","message":"AESEVN is not equal to 1, 2, 3, or null","source_document":"CDISC ADaM Conformance Rules v5.0","source_url":"https://www.cdisc.org/standards/foundational/adam/adam-conformance-rules-v5-0","source_version":"1","content_hash":"af900ff0374367724a201659ff175c48d019a98ec3ac4e556dda273101c79fb2","license":"CC-BY-4.0","p21_id_equivalent":null,"fetched_at":null,"scope":{"classes":"OCCURRENCE DATA STRUCTURE","domains":[],"exclude_domains":[]},"check_tree":{"narrative":"","condition_success":"","condition_failure":""}}
{"id":"28","authority":"CDISC","standard":"ADaM-IG","standard_ver":"1.0,1.1,1.2,1.3","severity":"Medium","message":"ITTFN is present and has a value that is not 1 or 0","source_document":"CDISC ADaM Conformance Rules v5.0","source_url":"https://www.cdisc.org/standards/foundational/adam/adam-conformance-rules-v5-0","source_version":"1","content_hash":"0ce80b5c92d00d81ed901c1ec5f9c769a1057699c03dfa90805bce62b2e8a9d9","license":"CC-BY-4.0","p21_id_equivalent":null,"fetched_at":null,"scope":{"classes":"SUBJECT LEVEL ANALYSIS DATASET","domains":[],"exclude_domains":[]},"check_tree":{"narrative":"","condition_success":"","condition_failure":"ITTFN is present"}}
{"id":"280","authority":"CDISC","standard":"ADaM-IG","standard_ver":"1.0","severity":"Medium","message":"There is more than one value of AESEV for a given value of AESEVN","source_document":"CDISC ADaM Conformance Rules v5.0","source_url":"https://www.cdisc.org/standards/foundational/adam/adam-conformance-rules-v5-0","source_version":"1","content_hash":"07abb2789b38a152c23a8b77bfc871a7e67dc32a52e413dbafc86480e4468246","license":"CC-BY-4.0","p21_id_equivalent":null,"fetched_at":null,"scope":{"classes":"OCCURRENCE DATA STRUCTURE","domains":[],"exclude_domains":[]},"check_tree":{"all":[{"name":"AESEVN","operator":"is_not_unique_relationship","value":{"related_name":"AESEV"}}]}}
{"id":"281","authority":"CDISC","standard":"ADaM-IG","standard_ver":"1.0","severity":"Medium","message":"There is more than one value of AESEVN for a given value of AESEV","source_document":"CDISC ADaM Conformance Rules v5.0","source_url":"https://www.cdisc.org/standards/foundational/adam/adam-conformance-rules-v5-0","source_version":"1","content_hash":"6442806d97402c2b8e884cb9062cd5f866e3dc6fb1e2d851b0ae7799b0906928","license":"CC-BY-4.0","p21_id_equivalent":null,"fetched_at":null,"scope":{"classes":"OCCURRENCE DATA STRUCTURE","domains":[],"exclude_domains":[]},"check_tree":{"all":[{"name":"AESEV","operator":"is_not_unique_relationship","value":{"related_name":"AESEVN"}}]}}
{"id":"282","authority":"CDISC","standard":"ADaM-IG","standard_ver":"1.0,1.1,1.2,1.3","severity":"Medium","message":"ASEVN is not equal to 1, 2, 3, or null","source_document":"CDISC ADaM Conformance Rules v5.0","source_url":"https://www.cdisc.org/standards/foundational/adam/adam-conformance-rules-v5-0","source_version":"1","content_hash":"af900ff0374367724a201659ff175c48d019a98ec3ac4e556dda273101c79fb2","license":"CC-BY-4.0","p21_id_equivalent":null,"fetched_at":null,"scope":{"classes":"OCCURRENCE DATA STRUCTURE","domains":[],"exclude_domains":[]},"check_tree":{"narrative":"","condition_success":"","condition_failure":""}}
{"id":"283","authority":"CDISC","standard":"ADaM-IG","standard_ver":"1.0","severity":"Medium","message":"There is more than one value of ASEV for a given value of ASEVN","source_document":"CDISC ADaM Conformance Rules v5.0","source_url":"https://www.cdisc.org/standards/foundational/adam/adam-conformance-rules-v5-0","source_version":"1","content_hash":"d87fcbbcc644a2ec4df55148d5abb0180b70cfdccc94f76c1f5607d3f4189897","license":"CC-BY-4.0","p21_id_equivalent":null,"fetched_at":null,"scope":{"classes":"OCCURRENCE DATA STRUCTURE","domains":[],"exclude_domains":[]},"check_tree":{"all":[{"name":"ASEVN","operator":"is_not_unique_relationship","value":{"related_name":"ASEV"}}]}}
{"id":"284","authority":"CDISC","standard":"ADaM-IG","standard_ver":"1.0","severity":"Medium","message":"There is more than one value of ASEVN for a given value of ASEV","source_document":"CDISC ADaM Conformance Rules v5.0","source_url":"https://www.cdisc.org/standards/foundational/adam/adam-conformance-rules-v5-0","source_version":"1","content_hash":"59fb14f83abc512e7204c7dabbfcd4962ffa53c1c2d76d6aa145b6ee30d56bbb","license":"CC-BY-4.0","p21_id_equivalent":null,"fetched_at":null,"scope":{"classes":"OCCURRENCE DATA STRUCTURE","domains":[],"exclude_domains":[]},"check_tree":{"all":[{"name":"ASEV","operator":"is_not_unique_relationship","value":{"related_name":"ASEVN"}}]}}
{"id":"285","authority":"CDISC","standard":"ADaM-IG","standard_ver":"1.0","severity":"Medium","message":"There is more than one value of SEVGRy for a given value of SEVGRyN","source_document":"CDISC ADaM Conformance Rules v5.0","source_url":"https://www.cdisc.org/standards/foundational/adam/adam-conformance-rules-v5-0","source_version":"1","content_hash":"78e0d7aaee79201402fdc000d52c78b7dfe87b554ce83e3dd11635d1b381e118","license":"CC-BY-4.0","p21_id_equivalent":null,"fetched_at":null,"scope":{"classes":"OCCURRENCE DATA STRUCTURE","domains":[],"exclude_domains":[]},"check_tree":{"expand":"y","all":[{"name":"SEVGRyN","operator":"is_not_unique_relationship","value":{"related_name":"SEVGRy"}}]}}
{"id":"286","authority":"CDISC","standard":"ADaM-IG","standard_ver":"1.0","severity":"Medium","message":"There is more than one value of SEVGRyN for a given value of SEVGRy","source_document":"CDISC ADaM Conformance Rules v5.0","source_url":"https://www.cdisc.org/standards/foundational/adam/adam-conformance-rules-v5-0","source_version":"1","content_hash":"2d254e2569b6cedcf4d2ab39efe4492dfe0b1172b0f83952c3935f1e60099be7","license":"CC-BY-4.0","p21_id_equivalent":null,"fetched_at":null,"scope":{"classes":"OCCURRENCE DATA STRUCTURE","domains":[],"exclude_domains":[]},"check_tree":{"expand":"y","all":[{"name":"SEVGRy","operator":"is_not_unique_relationship","value":{"related_name":"SEVGRyN"}}]}}
{"id":"287","authority":"CDISC","standard":"ADaM-IG","standard_ver":"1.0","severity":"Medium","message":"There is more than one value of AEREL for a given value of AERELN","source_document":"CDISC ADaM Conformance Rules v5.0","source_url":"https://www.cdisc.org/standards/foundational/adam/adam-conformance-rules-v5-0","source_version":"1","content_hash":"2b76fb42a9b6ecaea65e67e15a3f5f5b91496411e9603a59895cf1ba2dfd1df2","license":"CC-BY-4.0","p21_id_equivalent":null,"fetched_at":null,"scope":{"classes":"OCCURRENCE DATA STRUCTURE","domains":[],"exclude_domains":[]},"check_tree":{"all":[{"name":"AERELN","operator":"is_not_unique_relationship","value":{"related_name":"AEREL"}}]}}
{"id":"288","authority":"CDISC","standard":"ADaM-IG","standard_ver":"1.0","severity":"Medium","message":"There is more than one value of AERELN for a given value of AEREL","source_document":"CDISC ADaM Conformance Rules v5.0","source_url":"https://www.cdisc.org/standards/foundational/adam/adam-conformance-rules-v5-0","source_version":"1","content_hash":"d245c0b42636e23e7f04dc20fe60a7f7b1b58bce912fc224def95d9c2c75ef30","license":"CC-BY-4.0","p21_id_equivalent":null,"fetched_at":null,"scope":{"classes":"OCCURRENCE DATA STRUCTURE","domains":[],"exclude_domains":[]},"check_tree":{"all":[{"name":"AEREL","operator":"is_not_unique_relationship","value":{"related_name":"AERELN"}}]}}
{"id":"289","authority":"CDISC","standard":"ADaM-IG","standard_ver":"1.0","severity":"Medium","message":"There is more than one value of AREL for a given value of ARELN","source_document":"CDISC ADaM Conformance Rules v5.0","source_url":"https://www.cdisc.org/standards/foundational/adam/adam-conformance-rules-v5-0","source_version":"1","content_hash":"69826f2725f63f87130063afbebf8d422b252883beaeba46de093cab5c6240ad","license":"CC-BY-4.0","p21_id_equivalent":null,"fetched_at":null,"scope":{"classes":"OCCURRENCE DATA STRUCTURE","domains":[],"exclude_domains":[]},"check_tree":{"all":[{"name":"ARELN","operator":"is_not_unique_relationship","value":{"related_name":"AREL"}}]}}
{"id":"29","authority":"CDISC","standard":"ADaM-IG","standard_ver":"1.0,1.1,1.2,1.3","severity":"Medium","message":"PPROTFN is present and has a value that is not 1 or 0","source_document":"CDISC ADaM Conformance Rules v5.0","source_url":"https://www.cdisc.org/standards/foundational/adam/adam-conformance-rules-v5-0","source_version":"1","content_hash":"e4f589583fa10189c7fe73d0910e71fca517cb3a1147309ff16bf94343ac4834","license":"CC-BY-4.0","p21_id_equivalent":null,"fetched_at":null,"scope":{"classes":"SUBJECT LEVEL ANALYSIS DATASET","domains":[],"exclude_domains":[]},"check_tree":{"narrative":"","condition_success":"","condition_failure":"PPROTFN is present"}}
{"id":"290","authority":"CDISC","standard":"ADaM-IG","standard_ver":"1.0","severity":"Medium","message":"There is more than one value of ARELN for a given value of AREL","source_document":"CDISC ADaM Conformance Rules v5.0","source_url":"https://www.cdisc.org/standards/foundational/adam/adam-conformance-rules-v5-0","source_version":"1","content_hash":"ec991be0f27c721131f625ed6fa7cadad077bb52f5fa5f97b5f75c0443e828fa","license":"CC-BY-4.0","p21_id_equivalent":null,"fetched_at":null,"scope":{"classes":"OCCURRENCE DATA STRUCTURE","domains":[],"exclude_domains":[]},"check_tree":{"all":[{"name":"AREL","operator":"is_not_unique_relationship","value":{"related_name":"ARELN"}}]}}
{"id":"291","authority":"CDISC","standard":"ADaM-IG","standard_ver":"1.0","severity":"Medium","message":"There is more than one value of RELGRy for a given value of RELGRyN","source_document":"CDISC ADaM Conformance Rules v5.0","source_url":"https://www.cdisc.org/standards/foundational/adam/adam-conformance-rules-v5-0","source_version":"1","content_hash":"9a49082001b7be5a277bf7b8e1ddc726fe704a5dfa217af9a4c7007b69ac9092","license":"CC-BY-4.0","p21_id_equivalent":null,"fetched_at":null,"scope":{"classes":"OCCURRENCE DATA STRUCTURE","domains":[],"exclude_domains":[]},"check_tree":{"expand":"y","all":[{"name":"RELGRyN","operator":"is_not_unique_relationship","value":{"related_name":"RELGRy"}}]}}
{"id":"292","authority":"CDISC","standard":"ADaM-IG","standard_ver":"1.0","severity":"Medium","message":"There is more than one value of RELGRyN for a given value of RELGRy","source_document":"CDISC ADaM Conformance Rules v5.0","source_url":"https://www.cdisc.org/standards/foundational/adam/adam-conformance-rules-v5-0","source_version":"1","content_hash":"c58d9c9df93bfa26f4d0a77e9be3e1034c3a2547c222e04b7f34bfad7fc228c5","license":"CC-BY-4.0","p21_id_equivalent":null,"fetched_at":null,"scope":{"classes":"OCCURRENCE DATA STRUCTURE","domains":[],"exclude_domains":[]},"check_tree":{"expand":"y","all":[{"name":"RELGRy","operator":"is_not_unique_relationship","value":{"related_name":"RELGRyN"}}]}}
{"id":"293","authority":"CDISC","standard":"ADaM-IG","standard_ver":"1.0","severity":"Medium","message":"There is more than one value of AETOXGR for a given value of AETOXGRN","source_document":"CDISC ADaM Conformance Rules v5.0","source_url":"https://www.cdisc.org/standards/foundational/adam/adam-conformance-rules-v5-0","source_version":"1","content_hash":"3100b2351b00acc116c4fde47649d2e5db2a21f327700c4f1a1ae759b709536c","license":"CC-BY-4.0","p21_id_equivalent":null,"fetched_at":null,"scope":{"classes":"OCCURRENCE DATA STRUCTURE","domains":[],"exclude_domains":[]},"check_tree":{"all":[{"name":"AETOXGRN","operator":"is_not_unique_relationship","value":{"related_name":"AETOXGR"}}]}}
{"id":"294","authority":"CDISC","standard":"ADaM-IG","standard_ver":"1.0","severity":"Medium","message":"There is more than one value of AETOXGRN for a given value of AETOXGR","source_document":"CDISC ADaM Conformance Rules v5.0","source_url":"https://www.cdisc.org/standards/foundational/adam/adam-conformance-rules-v5-0","source_version":"1","content_hash":"1860216505d4cdd7ff64239cac202c66dc81b9c069a9669a49d44f627b4711d5","license":"CC-BY-4.0","p21_id_equivalent":null,"fetched_at":null,"scope":{"classes":"OCCURRENCE DATA STRUCTURE","domains":[],"exclude_domains":[]},"check_tree":{"all":[{"name":"AETOXGR","operator":"is_not_unique_relationship","value":{"related_name":"AETOXGRN"}}]}}
{"id":"295","authority":"CDISC","standard":"ADaM-IG","standard_ver":"1.0","severity":"Medium","message":"There is more than one value of ATOXGR for a given value of ATOXGRN","source_document":"CDISC ADaM Conformance Rules v5.0","source_url":"https://www.cdisc.org/standards/foundational/adam/adam-conformance-rules-v5-0","source_version":"1","content_hash":"1cb130eecdfbbd6bd7154a60ae1937a562e20a6c9a9964eeca350be36959eea2","license":"CC-BY-4.0","p21_id_equivalent":null,"fetched_at":null,"scope":{"classes":"OCCURRENCE DATA STRUCTURE","domains":[],"exclude_domains":[]},"check_tree":{"all":[{"name":"ATOXGRN","operator":"is_not_unique_relationship","value":{"related_name":"ATOXGR"}}]}}
{"id":"296","authority":"CDISC","standard":"ADaM-IG","standard_ver":"1.0","severity":"Medium","message":"There is more than one value of ATOXGRN for a given value of ATOXGR","source_document":"CDISC ADaM Conformance Rules v5.0","source_url":"https://www.cdisc.org/standards/foundational/adam/adam-conformance-rules-v5-0","source_version":"1","content_hash":"15f21d20e2de70cf66e499a93666cd7b61756f43c327f93f7e7004d03c8b6c7b","license":"CC-BY-4.0","p21_id_equivalent":null,"fetched_at":null,"scope":{"classes":"OCCURRENCE DATA STRUCTURE","domains":[],"exclude_domains":[]},"check_tree":{"all":[{"name":"ATOXGR","operator":"is_not_unique_relationship","value":{"related_name":"ATOXGRN"}}]}}
{"id":"297","authority":"CDISC","standard":"ADaM-IG","standard_ver":"1.0","severity":"Medium","message":"There is more than one value of TOXGGRy for a given value of TOXGGRyN","source_document":"CDISC ADaM Conformance Rules v5.0","source_url":"https://www.cdisc.org/standards/foundational/adam/adam-conformance-rules-v5-0","source_version":"1","content_hash":"dd0998a0b5de94a1104994011a28d355f0d5082313595550164fcdd5fbbc4690","license":"CC-BY-4.0","p21_id_equivalent":null,"fetched_at":null,"scope":{"classes":"OCCURRENCE DATA STRUCTURE","domains":[],"exclude_domains":[]},"check_tree":{"expand":"y","all":[{"name":"TOXGGRyN","operator":"is_not_unique_relationship","value":{"related_name":"TOXGGRy"}}]}}
{"id":"298","authority":"CDISC","standard":"ADaM-IG","standard_ver":"1.0","severity":"Medium","message":"There is more than one value of TOXGGRyN for a given value of TOXGGRy","source_document":"CDISC ADaM Conformance Rules v5.0","source_url":"https://www.cdisc.org/standards/foundational/adam/adam-conformance-rules-v5-0","source_version":"1","content_hash":"1d0dc389ca308043607163a1a8b3875d708161881a733310b0c74e3090cdd676","license":"CC-BY-4.0","p21_id_equivalent":null,"fetched_at":null,"scope":{"classes":"OCCURRENCE DATA STRUCTURE","domains":[],"exclude_domains":[]},"check_tree":{"expand":"y","all":[{"name":"TOXGGRy","operator":"is_not_unique_relationship","value":{"related_name":"TOXGGRyN"}}]}}
{"id":"30","authority":"CDISC","standard":"ADaM-IG","standard_ver":"1.0,1.1,1.2,1.3","severity":"Medium","message":"SAFFN is present and has a value that is not 1 or 0","source_document":"CDISC ADaM Conformance Rules v5.0","source_url":"https://www.cdisc.org/standards/foundational/adam/adam-conformance-rules-v5-0","source_version":"1","content_hash":"67fffec054268141953f36dd3d3655f68fe9707b842f68241fb2f1f191eade50","license":"CC-BY-4.0","p21_id_equivalent":null,"fetched_at":null,"scope":{"classes":"SUBJECT LEVEL ANALYSIS DATASET","domains":[],"exclude_domains":[]},"check_tree":{"narrative":"","condition_success":"","condition_failure":"SAFFN is present"}}
{"id":"304","authority":"CDISC","standard":"ADaM-IG","standard_ver":"1.0,1.1,1.2,1.3","severity":"Medium","message":"SMQzzNAM is populated and SMQzzCD is not populated","source_document":"CDISC ADaM Conformance Rules v5.0","source_url":"https://www.cdisc.org/standards/foundational/adam/adam-conformance-rules-v5-0","source_version":"1","content_hash":"45e45639386eb7820388aaa987cdef8a27f45252cee39dd399742199937cdc49","license":"CC-BY-4.0","p21_id_equivalent":null,"fetched_at":null,"scope":{"classes":"OCCURRENCE DATA STRUCTURE","domains":[],"exclude_domains":[]},"check_tree":{"narrative":"","condition_success":"","condition_failure":"SMQzzNAM is populated"}}
{"id":"305","authority":"CDISC","standard":"ADaM-IG","standard_ver":"1.0,1.1,1.2,1.3","severity":"Medium","message":"SMQzzNAM is populated and SMQzzSC is not populated","source_document":"CDISC ADaM Conformance Rules v5.0","source_url":"https://www.cdisc.org/standards/foundational/adam/adam-conformance-rules-v5-0","source_version":"1","content_hash":"45e45639386eb7820388aaa987cdef8a27f45252cee39dd399742199937cdc49","license":"CC-BY-4.0","p21_id_equivalent":null,"fetched_at":null,"scope":{"classes":"OCCURRENCE DATA STRUCTURE","domains":[],"exclude_domains":[]},"check_tree":{"narrative":"","condition_success":"","condition_failure":"SMQzzNAM is populated"}}
{"id":"306","authority":"CDISC","standard":"ADaM-IG","standard_ver":"1.0,1.1,1.2,1.3","severity":"Medium","message":"SMQzzCD is populated and SMQzzNAM is not populated","source_document":"CDISC ADaM Conformance Rules v5.0","source_url":"https://www.cdisc.org/standards/foundational/adam/adam-conformance-rules-v5-0","source_version":"1","content_hash":"2b7fd571e6d7d1808e7fdcc9ac7be5510d12ecd1e25c608c099a3e822cfcc5e2","license":"CC-BY-4.0","p21_id_equivalent":null,"fetched_at":null,"scope":{"classes":"OCCURRENCE DATA STRUCTURE","domains":[],"exclude_domains":[]},"check_tree":{"narrative":"","condition_success":"","condition_failure":"SMQzzCD is populated"}}
{"id":"307","authority":"CDISC","standard":"ADaM-IG","standard_ver":"1.0,1.1,1.2,1.3","severity":"Medium","message":"SMQzzCD is populated and SMQzzSC is not populated","source_document":"CDISC ADaM Conformance Rules v5.0","source_url":"https://www.cdisc.org/standards/foundational/adam/adam-conformance-rules-v5-0","source_version":"1","content_hash":"2b7fd571e6d7d1808e7fdcc9ac7be5510d12ecd1e25c608c099a3e822cfcc5e2","license":"CC-BY-4.0","p21_id_equivalent":null,"fetched_at":null,"scope":{"classes":"OCCURRENCE DATA STRUCTURE","domains":[],"exclude_domains":[]},"check_tree":{"narrative":"","condition_success":"","condition_failure":"SMQzzCD is populated"}}
{"id":"308","authority":"CDISC","standard":"ADaM-IG","standard_ver":"1.0,1.1,1.2,1.3","severity":"Medium","message":"SMQzzSC is populated and SMQzzNAM is not populated","source_document":"CDISC ADaM Conformance Rules v5.0","source_url":"https://www.cdisc.org/standards/foundational/adam/adam-conformance-rules-v5-0","source_version":"1","content_hash":"d862067245ac53306c95453ea909ec03e2d440c8ca3965027c9e9f2dcb6d950a","license":"CC-BY-4.0","p21_id_equivalent":null,"fetched_at":null,"scope":{"classes":"OCCURRENCE DATA STRUCTURE","domains":[],"exclude_domains":[]},"check_tree":{"narrative":"","condition_success":"","condition_failure":"SMQzzSC is populated"}}
{"id":"309","authority":"CDISC","standard":"ADaM-IG","standard_ver":"1.0,1.1,1.2,1.3","severity":"Medium","message":"SMQzzSC is populated and SMQzzCD is not populated","source_document":"CDISC ADaM Conformance Rules v5.0","source_url":"https://www.cdisc.org/standards/foundational/adam/adam-conformance-rules-v5-0","source_version":"1","content_hash":"d862067245ac53306c95453ea909ec03e2d440c8ca3965027c9e9f2dcb6d950a","license":"CC-BY-4.0","p21_id_equivalent":null,"fetched_at":null,"scope":{"classes":"OCCURRENCE DATA STRUCTURE","domains":[],"exclude_domains":[]},"check_tree":{"narrative":"","condition_success":"","condition_failure":"SMQzzSC is populated"}}
{"id":"31","authority":"CDISC","standard":"ADaM-IG","standard_ver":"1.0,1.1,1.2,1.3","severity":"Medium","message":"RANDFN is present and has a value that is not 1 or 0","source_document":"CDISC ADaM Conformance Rules v5.0","source_url":"https://www.cdisc.org/standards/foundational/adam/adam-conformance-rules-v5-0","source_version":"1","content_hash":"bd5d8d0b6d3f2013db74f7a8cd36d67786cbbc59ce69371b933ee28203521f64","license":"CC-BY-4.0","p21_id_equivalent":null,"fetched_at":null,"scope":{"classes":"SUBJECT LEVEL ANALYSIS DATASET","domains":[],"exclude_domains":[]},"check_tree":{"narrative":"","condition_success":"","condition_failure":"RANDFN is present"}}
{"id":"310","authority":"CDISC","standard":"ADaM-IG","standard_ver":"1.0","severity":"Medium","message":"There is more than one value of SMQzzSC for a given value of SMQzzSCN","source_document":"CDISC ADaM Conformance Rules v5.0","source_url":"https://www.cdisc.org/standards/foundational/adam/adam-conformance-rules-v5-0","source_version":"1","content_hash":"11a2b2dde67aba25719b24ea6d7720800a99d60a8e1e12b0a7896e728f17573f","license":"CC-BY-4.0","p21_id_equivalent":null,"fetched_at":null,"scope":{"classes":"OCCURRENCE DATA STRUCTURE","domains":[],"exclude_domains":[]},"check_tree":{"expand":"zz","all":[{"name":"SMQzzSCN","operator":"is_not_unique_relationship","value":{"related_name":"SMQzzSC"}}]}}
{"id":"311","authority":"CDISC","standard":"ADaM-IG","standard_ver":"1.0","severity":"Medium","message":"There is more than one value of SMQzzSCN for a given value of SMQzzSC","source_document":"CDISC ADaM Conformance Rules v5.0","source_url":"https://www.cdisc.org/standards/foundational/adam/adam-conformance-rules-v5-0","source_version":"1","content_hash":"4a9e6291680a13f442e1f8b22ce0b4de70576a830d4ada552402acca73fd1fab","license":"CC-BY-4.0","p21_id_equivalent":null,"fetched_at":null,"scope":{"classes":"OCCURRENCE DATA STRUCTURE","domains":[],"exclude_domains":[]},"check_tree":{"expand":"zz","all":[{"name":"SMQzzSC","operator":"is_not_unique_relationship","value":{"related_name":"SMQzzSCN"}}]}}
{"id":"312","authority":"CDISC","standard":"ADaM-IG","standard_ver":"1.0,1.1,1.2,1.3","severity":"Medium","message":"SMQzzSC is not equal to BROAD or NARROW, where zz is a zero-padded two-digit integer [01-99]","source_document":"CDISC ADaM Conformance Rules v5.0","source_url":"https://www.cdisc.org/standards/foundational/adam/adam-conformance-rules-v5-0","source_version":"1","content_hash":"45e45639386eb7820388aaa987cdef8a27f45252cee39dd399742199937cdc49","license":"CC-BY-4.0","p21_id_equivalent":null,"fetched_at":null,"scope":{"classes":"OCCURRENCE DATA STRUCTURE","domains":[],"exclude_domains":[]},"check_tree":{"narrative":"","condition_success":"","condition_failure":"SMQzzNAM is populated"}}
{"id":"313","authority":"CDISC","standard":"ADaM-IG","standard_ver":"1.0,1.1,1.2,1.3","severity":"Medium","message":"SMQzzSCN is not equal to 1 or 2, where zz is a zero-padded two-digit integer [01-99]","source_document":"CDISC ADaM Conformance Rules v5.0","source_url":"https://www.cdisc.org/standards/foundational/adam/adam-conformance-rules-v5-0","source_version":"1","content_hash":"af900ff0374367724a201659ff175c48d019a98ec3ac4e556dda273101c79fb2","license":"CC-BY-4.0","p21_id_equivalent":null,"fetched_at":null,"scope":{"classes":"OCCURRENCE DATA STRUCTURE","domains":[],"exclude_domains":[]},"check_tree":{"narrative":"","condition_success":"","condition_failure":""}}
{"id":"32","authority":"CDISC","standard":"ADaM-IG","standard_ver":"1.0,1.1,1.2,1.3","severity":"Medium","message":"ENRLFN is present and has a value that is not 1 or 0","source_document":"CDISC ADaM Conformance Rules v5.0","source_url":"https://www.cdisc.org/standards/foundational/adam/adam-conformance-rules-v5-0","source_version":"1","content_hash":"247bbfb8ee9d1af9bf156fdab8d6a4171820a9e89c282ed43ea27f000736f468","license":"CC-BY-4.0","p21_id_equivalent":null,"fetched_at":null,"scope":{"classes":"SUBJECT LEVEL ANALYSIS DATASET","domains":[],"exclude_domains":[]},"check_tree":{"narrative":"","condition_success":"","condition_failure":"ENRLFN is present"}}
{"id":"320","authority":"CDISC","standard":"ADaM-IG","standard_ver":"1.0,1.1,1.2,1.3","severity":"Medium","message":"A dataset is named ADSL and the dataset label is not \"Subject-Level Analysis Dataset\"","source_document":"CDISC ADaM Conformance Rules v5.0","source_url":"https://www.cdisc.org/standards/foundational/adam/adam-conformance-rules-v5-0","source_version":"1","content_hash":"80d7f0d5e785f6c771a426fb826ef96a06f0190f4c7c537468e737d746390acd","license":"CC-BY-4.0","p21_id_equivalent":null,"fetched_at":null,"scope":{"classes":"SUBJECT LEVEL ANALYSIS DATASET","domains":[],"exclude_domains":[]},"check_tree":{"operator":"dataset_label_not","expected":"Subject-Level Analysis Dataset"}}
{"id":"321","authority":"CDISC","standard":"ADaM-IG","standard_ver":"1.0,1.1,1.2,1.3","severity":"Medium","message":"A dataset label is \"Subject-Level Analysis Dataset\" and the dataset is not named ADSL","source_document":"CDISC ADaM Conformance Rules v5.0","source_url":"https://www.cdisc.org/standards/foundational/adam/adam-conformance-rules-v5-0","source_version":"1","content_hash":"eb2d7d3edb11a07d74ededda95d02db643d78c55efb7a08e22a5629d2517df1b","license":"CC-BY-4.0","p21_id_equivalent":null,"fetched_at":null,"scope":{"classes":"SUBJECT LEVEL ANALYSIS DATASET","domains":[],"exclude_domains":[]},"check_tree":{"narrative":"","condition_success":"","condition_failure":"Dataset label is \"Subject-Level Analysis Dataset\""}}
{"id":"322","authority":"CDISC","standard":"ADaM-IG","standard_ver":"1.1,1.2,1.3","severity":"Medium","message":"Within a given value of TRTP, there is more than one value of TRTPGy, where y is an integer [1-99, not zero-padded]","source_document":"CDISC ADaM Conformance Rules v5.0","source_url":"https://www.cdisc.org/standards/foundational/adam/adam-conformance-rules-v5-0","source_version":"1","content_hash":"af900ff0374367724a201659ff175c48d019a98ec3ac4e556dda273101c79fb2","license":"CC-BY-4.0","p21_id_equivalent":null,"fetched_at":null,"scope":{"classes":["BASIC DATA STRUCTURE","OCCURRENCE DATA STRUCTURE"],"domains":[],"exclude_domains":[]},"check_tree":{"narrative":"","condition_success":"","condition_failure":""}}
{"id":"323","authority":"CDISC","standard":"ADaM-IG","standard_ver":"1.1,1.2,1.3","severity":"Medium","message":"Within a study, there is more than one value of APHASEN for a given value of APHASE, considering only those rows on which both variables are populated","source_document":"CDISC ADaM Conformance Rules v5.0","source_url":"https://www.cdisc.org/standards/foundational/adam/adam-conformance-rules-v5-0","source_version":"1","content_hash":"64cd498a4b13c1277fe02a6394c9eb9909ed4a2aa9aec95668ecf9ef8c46d38c","license":"CC-BY-4.0","p21_id_equivalent":null,"fetched_at":null,"scope":{"classes":["BASIC DATA STRUCTURE","OCCURRENCE DATA STRUCTURE"],"domains":[],"exclude_domains":[]},"check_tree":{"narrative":"","condition_success":"","condition_failure":"On rows where both APHASEN and APHASE are both populated"}}
{"id":"324","authority":"CDISC","standard":"ADaM-IG","standard_ver":"1.1,1.2,1.3","severity":"Medium","message":"Within a study, there is more than one value of APHASE for a given value of APHASEN, considering only those rows on which both variables are populated","source_document":"CDISC ADaM Conformance Rules v5.0","source_url":"https://www.cdisc.org/standards/foundational/adam/adam-conformance-rules-v5-0","source_version":"1","content_hash":"7fa64866643cfb1a7788b07c5eedc8c8cd0f4cd89d157f86c9c4e8d1fad131db","license":"CC-BY-4.0","p21_id_equivalent":null,"fetched_at":null,"scope":{"classes":["BASIC DATA STRUCTURE","OCCURRENCE DATA STRUCTURE"],"domains":[],"exclude_domains":[]},"check_tree":{"narrative":"","condition_success":"","condition_failure":"On rows where both APHASE and APHASEN are both populated"}}
{"id":"325","authority":"CDISC","standard":"ADaM-IG","standard_ver":"1.1,1.2,1.3","severity":"Medium","message":"Within a value of APERIOD, there is more than one value of ASPER for a given value of ASPERC, considering only those rows on which both variables are populated","source_document":"CDISC ADaM Conformance Rules v5.0","source_url":"https://www.cdisc.org/standards/foundational/adam/adam-conformance-rules-v5-0","source_version":"1","content_hash":"c7bc37d00bb9e99b15b1620c3760645df142fd0a91223b251d40606208505eba","license":"CC-BY-4.0","p21_id_equivalent":null,"fetched_at":null,"scope":{"classes":["BASIC DATA STRUCTURE","OCCURRENCE DATA STRUCTURE"],"domains":[],"exclude_domains":[]},"check_tree":{"narrative":"","condition_success":"","condition_failure":"On rows where both ASPER and ASPERC are both populated"}}
{"id":"326","authority":"CDISC","standard":"ADaM-IG","standard_ver":"1.1,1.2,1.3","severity":"Medium","message":"Within a value of APERIOD, there is more than one value of ASPERC for a given value of ASPER, considering only those rows on which both variables are populated","source_document":"CDISC ADaM Conformance Rules v5.0","source_url":"https://www.cdisc.org/standards/foundational/adam/adam-conformance-rules-v5-0","source_version":"1","content_hash":"67262285b48a68a06bd5e915fbd63027d4beee24ae81e44e54afac4cbe481726","license":"CC-BY-4.0","p21_id_equivalent":null,"fetched_at":null,"scope":{"classes":["BASIC DATA STRUCTURE","OCCURRENCE DATA STRUCTURE"],"domains":[],"exclude_domains":[]},"check_tree":{"narrative":"","condition_success":"","condition_failure":"On rows where both ASPERC and ASPER are both populated"}}
{"id":"327","authority":"CDISC","standard":"ADaM-IG","standard_ver":"1.1,1.2,1.3","severity":"Medium","message":"Within a parameter, there is more than one value of AVALCATy for a given value of AVALCAyN, considering only those rows on which both variables are populated","source_document":"CDISC ADaM Conformance Rules v5.0","source_url":"https://www.cdisc.org/standards/foundational/adam/adam-conformance-rules-v5-0","source_version":"1","content_hash":"ca9dea0633910151bd749a316d63a7b99d6758f075be746396d3244d8e7d2a9f","license":"CC-BY-4.0","p21_id_equivalent":null,"fetched_at":null,"scope":{"classes":"BASIC DATA STRUCTURE","domains":[],"exclude_domains":[]},"check_tree":{"narrative":"","condition_success":"","condition_failure":"On rows where both AVALCATy and AVALCAyN are both populated"}}
{"id":"328","authority":"CDISC","standard":"ADaM-IG","standard_ver":"1.1,1.2,1.3","severity":"Medium","message":"Within a parameter, there is more than one value of AVALCAyN for a given value of AVALCATy, considering only those rows on which both variables are populated","source_document":"CDISC ADaM Conformance Rules v5.0","source_url":"https://www.cdisc.org/standards/foundational/adam/adam-conformance-rules-v5-0","source_version":"1","content_hash":"c12d9c029b3f60354e41f2b855fe73211c6c91cb75d4de6f746c5d97b56d549a","license":"CC-BY-4.0","p21_id_equivalent":null,"fetched_at":null,"scope":{"classes":"BASIC DATA STRUCTURE","domains":[],"exclude_domains":[]},"check_tree":{"narrative":"","condition_success":"","condition_failure":"On rows where both AVALCAyN and AVALCATy are both populated"}}
{"id":"329","authority":"CDISC","standard":"ADaM-IG","standard_ver":"1.1,1.2,1.3","severity":"Medium","message":"Within a parameter, there is more than one value of BASECATy for a given value of BASECAyN, considering only those rows on which both variables are populated","source_document":"CDISC ADaM Conformance Rules v5.0","source_url":"https://www.cdisc.org/standards/foundational/adam/adam-conformance-rules-v5-0","source_version":"1","content_hash":"fabb8a1dc1c1d1c5080d2de32ba0dd8fe628f8efa715bc168d4a577e223f41cf","license":"CC-BY-4.0","p21_id_equivalent":null,"fetched_at":null,"scope":{"classes":"BASIC DATA STRUCTURE","domains":[],"exclude_domains":[]},"check_tree":{"narrative":"","condition_success":"","condition_failure":"On rows where both BASECATy and BASECAyN are both populated"}}
{"id":"33","authority":"CDISC","standard":"ADaM-IG","standard_ver":"1.0,1.1","severity":"Medium","message":"A variable with a suffix of RFL has a value that is not Y or null","source_document":"CDISC ADaM Conformance Rules v5.0","source_url":"https://www.cdisc.org/standards/foundational/adam/adam-conformance-rules-v5-0","source_version":"1","content_hash":"1b3234c0a6148c9fb9059ce16c0d520bc117f8f7aad93d9e4b35c141b323a780","license":"CC-BY-4.0","p21_id_equivalent":null,"fetched_at":null,"scope":{"classes":"BASIC DATA STRUCTURE","domains":[],"exclude_domains":[]},"check_tree":{"narrative":"","condition_success":"","condition_failure":"Variable with a suffix of RFL is present"}}
{"id":"330","authority":"CDISC","standard":"ADaM-IG","standard_ver":"1.1,1.2,1.3","severity":"Medium","message":"Within a parameter, there is more than one value of BASECAyN for a given value of BASECATy, considering only those rows on which both variables are populated","source_document":"CDISC ADaM Conformance Rules v5.0","source_url":"https://www.cdisc.org/standards/foundational/adam/adam-conformance-rules-v5-0","source_version":"1","content_hash":"27e0f1b296d03fdb22869b42d95ae75328940ef4f0819857471ae7c6b7d94323","license":"CC-BY-4.0","p21_id_equivalent":null,"fetched_at":null,"scope":{"classes":"BASIC DATA STRUCTURE","domains":[],"exclude_domains":[]},"check_tree":{"narrative":"","condition_success":"","condition_failure":"On rows where both BASECAyN and BASECATy are both populated"}}
{"id":"331","authority":"CDISC","standard":"ADaM-IG","standard_ver":"1.1,1.2,1.3","severity":"Medium","message":"Within a parameter, there is more than one value of CHGCATy for a given value of CHGCATyN, considering only those rows on which both variables are populated","source_document":"CDISC ADaM Conformance Rules v5.0","source_url":"https://www.cdisc.org/standards/foundational/adam/adam-conformance-rules-v5-0","source_version":"1","content_hash":"820ab741fba1bafbf4b4fa22703877bb84babd908c4f1fdfceeecd718711d21a","license":"CC-BY-4.0","p21_id_equivalent":null,"fetched_at":null,"scope":{"classes":"BASIC DATA STRUCTURE","domains":[],"exclude_domains":[]},"check_tree":{"narrative":"","condition_success":"","condition_failure":"On rows where both CHGCATy and CHGCATyN are both populated"}}
{"id":"332","authority":"CDISC","standard":"ADaM-IG","standard_ver":"1.1,1.2,1.3","severity":"Medium","message":"Within a parameter, there is more than one value of CHGCATyN for a given value of CHGCATy, considering only those rows on which both variables are populated","source_document":"CDISC ADaM Conformance Rules v5.0","source_url":"https://www.cdisc.org/standards/foundational/adam/adam-conformance-rules-v5-0","source_version":"1","content_hash":"e2f07e4ad6e81f475a5c9a87a7476d4fcba85cf373cc3645c750c812e9e20200","license":"CC-BY-4.0","p21_id_equivalent":null,"fetched_at":null,"scope":{"classes":"BASIC DATA STRUCTURE","domains":[],"exclude_domains":[]},"check_tree":{"narrative":"","condition_success":"","condition_failure":"On rows where both CHGCATyN and CHGCATy are both populated"}}
{"id":"333","authority":"CDISC","standard":"ADaM-IG","standard_ver":"1.1,1.2,1.3","severity":"Medium","message":"Within a parameter, there is more than one value of PCHGCATy for a given value of PCHGCAyN, considering only those rows on which both variables are populated","source_document":"CDISC ADaM Conformance Rules v5.0","source_url":"https://www.cdisc.org/standards/foundational/adam/adam-conformance-rules-v5-0","source_version":"1","content_hash":"0159dc99c4ee415c2d08099cb9cb9dd0dee8a284f5f0f46f5cec766c438d2abc","license":"CC-BY-4.0","p21_id_equivalent":null,"fetched_at":null,"scope":{"classes":"BASIC DATA STRUCTURE","domains":[],"exclude_domains":[]},"check_tree":{"narrative":"","condition_success":"","condition_failure":"On rows where both PCHGCATy and PCHGCAyN are both populated"}}
{"id":"334","authority":"CDISC","standard":"ADaM-IG","standard_ver":"1.1,1.2,1.3","severity":"Medium","message":"Within a parameter, there is more than one value of PCHGCAyN for a given value of PCHGCATy, considering only those rows on which both variables are populated","source_document":"CDISC ADaM Conformance Rules v5.0","source_url":"https://www.cdisc.org/standards/foundational/adam/adam-conformance-rules-v5-0","source_version":"1","content_hash":"aba2a53e47ca38b982e2eeb10fe2404bcb42bcdde8bcc62796a98f7fbef9a022","license":"CC-BY-4.0","p21_id_equivalent":null,"fetched_at":null,"scope":{"classes":"BASIC DATA STRUCTURE","domains":[],"exclude_domains":[]},"check_tree":{"narrative":"","condition_success":"","condition_failure":"On rows where both PCHGCAyN and PCHGCATy are both populated"}}
{"id":"335","authority":"CDISC","standard":"ADaM-IG","standard_ver":"1.0,1.1,1.2,1.3","severity":"Medium","message":"CRITyFL is present and CRITy is not present","source_document":"CDISC ADaM Conformance Rules v5.0","source_url":"https://www.cdisc.org/standards/foundational/adam/adam-conformance-rules-v5-0","source_version":"1","content_hash":"ba611df5a44525d8fd35b954faf9343b912e949762fb1f24bf2a0b9e7a990dfb","license":"CC-BY-4.0","p21_id_equivalent":null,"fetched_at":null,"scope":{"classes":"BASIC DATA STRUCTURE","domains":[],"exclude_domains":[]},"check_tree":{"narrative":"","condition_success":"","condition_failure":"CRITyFL is present"}}
{"id":"336","authority":"CDISC","standard":"ADaM-IG","standard_ver":"1.0,1.1,1.2,1.3","severity":"Medium","message":"CRITy is present and CRITyFL is not present","source_document":"CDISC ADaM Conformance Rules v5.0","source_url":"https://www.cdisc.org/standards/foundational/adam/adam-conformance-rules-v5-0","source_version":"1","content_hash":"37667a1c4ec73c589c8d4cb75863d1681c721d58944cdfb76bf2615aec506077","license":"CC-BY-4.0","p21_id_equivalent":null,"fetched_at":null,"scope":{"classes":"BASIC DATA STRUCTURE","domains":[],"exclude_domains":[]},"check_tree":{"narrative":"","condition_success":"","condition_failure":"CRITy is present"}}
{"id":"337","authority":"CDISC","standard":"ADaM-IG","standard_ver":"1.1,1.2,1.3","severity":"Medium","message":"MCRITyML is present and MCRITy is not present","source_document":"CDISC ADaM Conformance Rules v5.0","source_url":"https://www.cdisc.org/standards/foundational/adam/adam-conformance-rules-v5-0","source_version":"1","content_hash":"7359da066b256b4694f27ed7871804bbecb6b1c1e21e4c9c0d5854cbe2d66ed6","license":"CC-BY-4.0","p21_id_equivalent":null,"fetched_at":null,"scope":{"classes":"BASIC DATA STRUCTURE","domains":[],"exclude_domains":[]},"check_tree":{"narrative":"","condition_success":"","condition_failure":"MCRITyML is present"}}
{"id":"338","authority":"CDISC","standard":"ADaM-IG","standard_ver":"1.1,1.2,1.3","severity":"Medium","message":"MCRITy is present and MCRITyML is not present","source_document":"CDISC ADaM Conformance Rules v5.0","source_url":"https://www.cdisc.org/standards/foundational/adam/adam-conformance-rules-v5-0","source_version":"1","content_hash":"f4db2b652f97804ea98c8c154d53a4931d3456a597b9c2f7d6a518f0f9b51555","license":"CC-BY-4.0","p21_id_equivalent":null,"fetched_at":null,"scope":{"classes":"BASIC DATA STRUCTURE","domains":[],"exclude_domains":[]},"check_tree":{"narrative":"","condition_success":"","condition_failure":"MCRITy is present"}}
{"id":"339","authority":"CDISC","standard":"ADaM-IG","standard_ver":"1.1,1.2,1.3","severity":"Medium","message":"MCRITyML is populated and MCRITy is not populated","source_document":"CDISC ADaM Conformance Rules v5.0","source_url":"https://www.cdisc.org/standards/foundational/adam/adam-conformance-rules-v5-0","source_version":"1","content_hash":"07041d1f15b5dff496762f820ac76284b01c4efca674daa49532eab0665ebf96","license":"CC-BY-4.0","p21_id_equivalent":null,"fetched_at":null,"scope":{"classes":"BASIC DATA STRUCTURE","domains":[],"exclude_domains":[]},"check_tree":{"narrative":"","condition_success":"","condition_failure":"MCRITyML is populated"}}
{"id":"34","authority":"CDISC","standard":"ADaM-IG","standard_ver":"1.0,1.1","severity":"Medium","message":"A variable with a suffix of PFL has a value that is not Y or null","source_document":"CDISC ADaM Conformance Rules v5.0","source_url":"https://www.cdisc.org/standards/foundational/adam/adam-conformance-rules-v5-0","source_version":"1","content_hash":"9569b78b6ce784ce1f01e5a8fc14fddb5682b0b5cf49e2d3005c92b0becf0fe7","license":"CC-BY-4.0","p21_id_equivalent":null,"fetched_at":null,"scope":{"classes":"BASIC DATA STRUCTURE","domains":[],"exclude_domains":[]},"check_tree":{"narrative":"","condition_success":"","condition_failure":"Variable with a suffix of PFL is present"}}
{"id":"340","authority":"CDISC","standard":"ADaM-IG","standard_ver":"1.1,1.2,1.3","severity":"Medium","message":"Within a parameter, there is more than one value of MCRITyML for a given value of MCRITyMN, considering only those rows on which both variables are populated","source_document":"CDISC ADaM Conformance Rules v5.0","source_url":"https://www.cdisc.org/standards/foundational/adam/adam-conformance-rules-v5-0","source_version":"1","content_hash":"d5d84e08c007d308ac39c132b4ea7547eb828afb0e56a2cb2cabf329bd671288","license":"CC-BY-4.0","p21_id_equivalent":null,"fetched_at":null,"scope":{"classes":"BASIC DATA STRUCTURE","domains":[],"exclude_domains":[]},"check_tree":{"narrative":"","condition_success":"","condition_failure":"On rows where both MCRITyML and MCRITyMN are both populated"}}
{"id":"341","authority":"CDISC","standard":"ADaM-IG","standard_ver":"1.1,1.2,1.3","severity":"Medium","message":"Within a parameter, there is more than one value of MCRITyMN for a given value of MCRITyML, considering only those rows on which both variables are populated","source_document":"CDISC ADaM Conformance Rules v5.0","source_url":"https://www.cdisc.org/standards/foundational/adam/adam-conformance-rules-v5-0","source_version":"1","content_hash":"190b5b151f99968508cff6e9cb0f121616220909a6a8386d12c145548788381b","license":"CC-BY-4.0","p21_id_equivalent":null,"fetched_at":null,"scope":{"classes":"BASIC DATA STRUCTURE","domains":[],"exclude_domains":[]},"check_tree":{"narrative":"","condition_success":"","condition_failure":"On rows where both MCRITyMN and MCRITyML are both populated"}}
{"id":"342","authority":"CDISC","standard":"ADaM-IG","standard_ver":"1.1,1.2,1.3","severity":"Medium","message":"Within a parameter, there is more than one value of ANRLO for a given value of ANRLOC","source_document":"CDISC ADaM Conformance Rules v5.0","source_url":"https://www.cdisc.org/standards/foundational/adam/adam-conformance-rules-v5-0","source_version":"1","content_hash":"af900ff0374367724a201659ff175c48d019a98ec3ac4e556dda273101c79fb2","license":"CC-BY-4.0","p21_id_equivalent":null,"fetched_at":null,"scope":{"classes":"BASIC DATA STRUCTURE","domains":[],"exclude_domains":[]},"check_tree":{"narrative":"","condition_success":"","condition_failure":""}}
{"id":"343","authority":"CDISC","standard":"ADaM-IG","standard_ver":"1.1,1.2,1.3","severity":"Medium","message":"Within a parameter, there is more than one value of ANRLOC for a given value of ANRLO","source_document":"CDISC ADaM Conformance Rules v5.0","source_url":"https://www.cdisc.org/standards/foundational/adam/adam-conformance-rules-v5-0","source_version":"1","content_hash":"af900ff0374367724a201659ff175c48d019a98ec3ac4e556dda273101c79fb2","license":"CC-BY-4.0","p21_id_equivalent":null,"fetched_at":null,"scope":{"classes":"BASIC DATA STRUCTURE","domains":[],"exclude_domains":[]},"check_tree":{"narrative":"","condition_success":"","condition_failure":""}}
{"id":"344","authority":"CDISC","standard":"ADaM-IG","standard_ver":"1.1,1.2,1.3","severity":"Medium","message":"Within a parameter, there is more than one value of ANRHI for a given value of ANRHIC","source_document":"CDISC ADaM Conformance Rules v5.0","source_url":"https://www.cdisc.org/standards/foundational/adam/adam-conformance-rules-v5-0","source_version":"1","content_hash":"af900ff0374367724a201659ff175c48d019a98ec3ac4e556dda273101c79fb2","license":"CC-BY-4.0","p21_id_equivalent":null,"fetched_at":null,"scope":{"classes":"BASIC DATA STRUCTURE","domains":[],"exclude_domains":[]},"check_tree":{"narrative":"","condition_success":"","condition_failure":""}}
{"id":"345","authority":"CDISC","standard":"ADaM-IG","standard_ver":"1.1,1.2,1.3","severity":"Medium","message":"Within a parameter, there is more than one value of ANRHIC for a given value of ANRHI","source_document":"CDISC ADaM Conformance Rules v5.0","source_url":"https://www.cdisc.org/standards/foundational/adam/adam-conformance-rules-v5-0","source_version":"1","content_hash":"af900ff0374367724a201659ff175c48d019a98ec3ac4e556dda273101c79fb2","license":"CC-BY-4.0","p21_id_equivalent":null,"fetched_at":null,"scope":{"classes":"BASIC DATA STRUCTURE","domains":[],"exclude_domains":[]},"check_tree":{"narrative":"","condition_success":"","condition_failure":""}}
{"id":"346","authority":"CDISC","standard":"ADaM-IG","standard_ver":"1.1,1.2,1.3","severity":"Medium","message":"R2AyLO is present and AyLO is not present","source_document":"CDISC ADaM Conformance Rules v5.0","source_url":"https://www.cdisc.org/standards/foundational/adam/adam-conformance-rules-v5-0","source_version":"1","content_hash":"76934b98914f2829f0c64e12dc227f6ec1e866f4f14b5d4f317148ff837be1c7","license":"CC-BY-4.0","p21_id_equivalent":null,"fetched_at":null,"scope":{"classes":"BASIC DATA STRUCTURE","domains":[],"exclude_domains":[]},"check_tree":{"narrative":"","condition_success":"","condition_failure":"R2AyLO is present"}}
{"id":"347","authority":"CDISC","standard":"ADaM-IG","standard_ver":"1.1,1.2,1.3","severity":"Medium","message":"Within a parameter, there is more than one value of AyLO for a given value of AyLOC","source_document":"CDISC ADaM Conformance Rules v5.0","source_url":"https://www.cdisc.org/standards/foundational/adam/adam-conformance-rules-v5-0","source_version":"1","content_hash":"af900ff0374367724a201659ff175c48d019a98ec3ac4e556dda273101c79fb2","license":"CC-BY-4.0","p21_id_equivalent":null,"fetched_at":null,"scope":{"classes":"BASIC DATA STRUCTURE","domains":[],"exclude_domains":[]},"check_tree":{"narrative":"","condition_success":"","condition_failure":""}}
{"id":"348","authority":"CDISC","standard":"ADaM-IG","standard_ver":"1.1,1.2,1.3","severity":"Medium","message":"Within a parameter, there is more than one value of AyLOC for a given value of AyLO","source_document":"CDISC ADaM Conformance Rules v5.0","source_url":"https://www.cdisc.org/standards/foundational/adam/adam-conformance-rules-v5-0","source_version":"1","content_hash":"af900ff0374367724a201659ff175c48d019a98ec3ac4e556dda273101c79fb2","license":"CC-BY-4.0","p21_id_equivalent":null,"fetched_at":null,"scope":{"classes":"BASIC DATA STRUCTURE","domains":[],"exclude_domains":[]},"check_tree":{"narrative":"","condition_success":"","condition_failure":""}}
{"id":"349","authority":"CDISC","standard":"ADaM-IG","standard_ver":"1.1,1.2,1.3","severity":"Medium","message":"R2AyHI is present and AyHI is not present","source_document":"CDISC ADaM Conformance Rules v5.0","source_url":"https://www.cdisc.org/standards/foundational/adam/adam-conformance-rules-v5-0","source_version":"1","content_hash":"8571e2814f8522ea25148d508b9410e172c6a4747c74e342daf117530a9f306d","license":"CC-BY-4.0","p21_id_equivalent":null,"fetched_at":null,"scope":{"classes":"BASIC DATA STRUCTURE","domains":[],"exclude_domains":[]},"check_tree":{"narrative":"","condition_success":"","condition_failure":"R2AyHI is present"}}
{"id":"35","authority":"CDISC","standard":"ADaM-IG","standard_ver":"1.0,1.1","severity":"Medium","message":"A variable with a suffix of RFN has a value that is not 1 or null","source_document":"CDISC ADaM Conformance Rules v5.0","source_url":"https://www.cdisc.org/standards/foundational/adam/adam-conformance-rules-v5-0","source_version":"1","content_hash":"3b76656b73ea7c9c05a0061cd83e736dac62bba2c6a8bff33403739e873a0e5a","license":"CC-BY-4.0","p21_id_equivalent":null,"fetched_at":null,"scope":{"classes":"BASIC DATA STRUCTURE","domains":[],"exclude_domains":[]},"check_tree":{"narrative":"","condition_success":"","condition_failure":"Variable with a suffix of RFN is present"}}
{"id":"350","authority":"CDISC","standard":"ADaM-IG","standard_ver":"1.1,1.2,1.3","severity":"Medium","message":"Within a parameter, there is more than one value of AyHI for a given value of AyHIC","source_document":"CDISC ADaM Conformance Rules v5.0","source_url":"https://www.cdisc.org/standards/foundational/adam/adam-conformance-rules-v5-0","source_version":"1","content_hash":"af900ff0374367724a201659ff175c48d019a98ec3ac4e556dda273101c79fb2","license":"CC-BY-4.0","p21_id_equivalent":null,"fetched_at":null,"scope":{"classes":"BASIC DATA STRUCTURE","domains":[],"exclude_domains":[]},"check_tree":{"narrative":"","condition_success":"","condition_failure":""}}
{"id":"351","authority":"CDISC","standard":"ADaM-IG","standard_ver":"1.1,1.2,1.3","severity":"Medium","message":"Within a parameter, there is more than one value of AyHIC for a given value of AyHI","source_document":"CDISC ADaM Conformance Rules v5.0","source_url":"https://www.cdisc.org/standards/foundational/adam/adam-conformance-rules-v5-0","source_version":"1","content_hash":"af900ff0374367724a201659ff175c48d019a98ec3ac4e556dda273101c79fb2","license":"CC-BY-4.0","p21_id_equivalent":null,"fetched_at":null,"scope":{"classes":"BASIC DATA STRUCTURE","domains":[],"exclude_domains":[]},"check_tree":{"narrative":"","condition_success":"","condition_failure":""}}
{"id":"352","authority":"CDISC","standard":"ADaM-IG","standard_ver":"1.1,1.2,1.3","severity":"Medium","message":"AyIND is present and AyLO, AyHI, AyLOC, and AyHIC are all not present","source_document":"CDISC ADaM Conformance Rules v5.0","source_url":"https://www.cdisc.org/standards/foundational/adam/adam-conformance-rules-v5-0","source_version":"1","content_hash":"e8cec601be02c86360006b3ad7b1b2f786175104e8fe1f405ea0ee0cef962a45","license":"CC-BY-4.0","p21_id_equivalent":null,"fetched_at":null,"scope":{"classes":"BASIC DATA STRUCTURE","domains":[],"exclude_domains":[]},"check_tree":{"narrative":"","condition_success":"","condition_failure":"AyIND is present"}}
{"id":"353","authority":"CDISC","standard":"ADaM-IG","standard_ver":"1.1,1.2","severity":"Medium","message":"BASETYPE is present, ByIND is populated, and ByIND is not equal to AyIND where ABLFL is equal to Y for a given value of PARAMCD and BASETYPE for a subject","source_document":"CDISC ADaM Conformance Rules v5.0","source_url":"https://www.cdisc.org/standards/foundational/adam/adam-conformance-rules-v5-0","source_version":"1","content_hash":"81174f8531875cb5e14f43e655ef1914d7fdf272c289912fb943c10f9406bb1e","license":"CC-BY-4.0","p21_id_equivalent":null,"fetched_at":null,"scope":{"classes":"BASIC DATA STRUCTURE","domains":[],"exclude_domains":[]},"check_tree":{"narrative":"","condition_success":"","condition_failure":"BASETYPE is present and ByIND is populated"}}
{"id":"354","authority":"CDISC","standard":"ADaM-IG","standard_ver":"1.1,1.2,1.3","severity":"Medium","message":"BASETYPE is not present, ByIND is populated, and ByIND is not equal to AyIND where ABLFL is equal to Y for a given value of PARAMCD for a subject","source_document":"CDISC ADaM Conformance Rules v5.0","source_url":"https://www.cdisc.org/standards/foundational/adam/adam-conformance-rules-v5-0","source_version":"1","content_hash":"e8c2ccdef65be05aa62a05ddf58a678f6e4eead416d4e599698710e44114f9eb","license":"CC-BY-4.0","p21_id_equivalent":null,"fetched_at":null,"scope":{"classes":"BASIC DATA STRUCTURE","domains":[],"exclude_domains":[]},"check_tree":{"narrative":"","condition_success":"","condition_failure":"BASETYPE is not present and ByIND is populated"}}
{"id":"355","authority":"CDISC","standard":"ADaM-IG","standard_ver":"1.1,1.2,1.3","severity":"Medium","message":"There is more than one value of REGIONy for a given value of REGIONyN, considering only those rows on which both variables are populated","source_document":"CDISC ADaM Conformance Rules v5.0","source_url":"https://www.cdisc.org/standards/foundational/adam/adam-conformance-rules-v5-0","source_version":"1","content_hash":"1f19588dc9a9fa686de5b3ad7734e0c448af51916ba520b945cc5bc0f9b6f9d4","license":"CC-BY-4.0","p21_id_equivalent":null,"fetched_at":null,"scope":{"classes":"SUBJECT LEVEL ANALYSIS DATASET","domains":[],"exclude_domains":[]},"check_tree":{"narrative":"","condition_success":"","condition_failure":"On rows where both REGIONy and REGIONyN are both populated."}}
{"id":"356","authority":"CDISC","standard":"ADaM-IG","standard_ver":"1.1,1.2,1.3","severity":"Medium","message":"There is more than one value of REGIONyN for a given value of REGIONy, considering only those rows on which both variables are populated","source_document":"CDISC ADaM Conformance Rules v5.0","source_url":"https://www.cdisc.org/standards/foundational/adam/adam-conformance-rules-v5-0","source_version":"1","content_hash":"3a29cd20d6686221977db6541472531d060db054b4a263120f4be31506086bd4","license":"CC-BY-4.0","p21_id_equivalent":null,"fetched_at":null,"scope":{"classes":"SUBJECT LEVEL ANALYSIS DATASET","domains":[],"exclude_domains":[]},"check_tree":{"narrative":"","condition_success":"","condition_failure":"On rows where both REGIONyN and REGIONy are both populated."}}
{"id":"359","authority":"CDISC","standard":"ADaM-IG","standard_ver":"1.1,1.2,1.3","severity":"Medium","message":"There is more than one value of DTHCAUS for a given value of DTHCAUSN, considering only those rows on which both variables are populated","source_document":"CDISC ADaM Conformance Rules v5.0","source_url":"https://www.cdisc.org/standards/foundational/adam/adam-conformance-rules-v5-0","source_version":"1","content_hash":"8dec1b021e8134632f6e0ca8f3e55a48a4dcff532fa15ec2294b406b304ffec8","license":"CC-BY-4.0","p21_id_equivalent":null,"fetched_at":null,"scope":{"classes":"SUBJECT LEVEL ANALYSIS DATASET","domains":[],"exclude_domains":[]},"check_tree":{"all":[{"name":"DTHCAUSN","operator":"is_not_unique_relationship","value":{"related_name":"DTHCAUS"}}]}}
{"id":"36","authority":"CDISC","standard":"ADaM-IG","standard_ver":"1.0,1.1","severity":"Medium","message":"A variable with a suffix of PFN has a value that is not 1 or null","source_document":"CDISC ADaM Conformance Rules v5.0","source_url":"https://www.cdisc.org/standards/foundational/adam/adam-conformance-rules-v5-0","source_version":"1","content_hash":"317a88379cd3cbdf87a78ee9074ba44ebe1ebd15eed32b0aa3d3232764f7081e","license":"CC-BY-4.0","p21_id_equivalent":null,"fetched_at":null,"scope":{"classes":"BASIC DATA STRUCTURE","domains":[],"exclude_domains":[]},"check_tree":{"narrative":"","condition_success":"","condition_failure":"Variable with a suffix of PFN is present"}}
{"id":"360","authority":"CDISC","standard":"ADaM-IG","standard_ver":"1.1,1.2,1.3","severity":"Medium","message":"There is more than one value of DTHCAUSN for a given value of DTHCAUS, considering only those rows on which both variables are populated","source_document":"CDISC ADaM Conformance Rules v5.0","source_url":"https://www.cdisc.org/standards/foundational/adam/adam-conformance-rules-v5-0","source_version":"1","content_hash":"1e7ebba510d7395f3dd880230e633417db63cea01213485f66df8814d364f84b","license":"CC-BY-4.0","p21_id_equivalent":null,"fetched_at":null,"scope":{"classes":"SUBJECT LEVEL ANALYSIS DATASET","domains":[],"exclude_domains":[]},"check_tree":{"all":[{"name":"DTHCAUS","operator":"is_not_unique_relationship","value":{"related_name":"DTHCAUSN"}}]}}
{"id":"361","authority":"CDISC","standard":"ADaM-IG","standard_ver":"1.0,1.1,1.2,1.3","severity":"Medium","message":"The value of ASTDT is greater than the value of AENDT, considering only those rows on which both variables are populated","source_document":"CDISC ADaM Conformance Rules v5.0","source_url":"https://www.cdisc.org/standards/foundational/adam/adam-conformance-rules-v5-0","source_version":"1","content_hash":"6e07d18e9a90d03358b48f7af8a083415098f24810ff37e60c34af78b9aadd83","license":"CC-BY-4.0","p21_id_equivalent":null,"fetched_at":null,"scope":{"classes":"ALL","domains":[],"exclude_domains":[]},"check_tree":{"narrative":"","condition_success":"","condition_failure":"Considering only those rows on which both ASTDT and AENDT are populated"}}
{"id":"362","authority":"CDISC","standard":"ADaM-IG","standard_ver":"1.0,1.1,1.2,1.3","severity":"Medium","message":"The value of ASTDTM is greater than the value of AENDTM, considering only those rows on which both variables are populated","source_document":"CDISC ADaM Conformance Rules v5.0","source_url":"https://www.cdisc.org/standards/foundational/adam/adam-conformance-rules-v5-0","source_version":"1","content_hash":"93acd3d9302f9d770c7014a34e92e19b1577693e57bf35381ba202640a266864","license":"CC-BY-4.0","p21_id_equivalent":null,"fetched_at":null,"scope":{"classes":"ALL","domains":[],"exclude_domains":[]},"check_tree":{"narrative":"","condition_success":"","condition_failure":"Considering only those rows on which both ASTDTM and AENDTM are populated"}}
{"id":"363","authority":"CDISC","standard":"ADaM-IG","standard_ver":"1.0,1.1","severity":"Medium","message":"ONTRTFL is not equal to Y or null","source_document":"CDISC ADaM Conformance Rules v5.0","source_url":"https://www.cdisc.org/standards/foundational/adam/adam-conformance-rules-v5-0","source_version":"1","content_hash":"af900ff0374367724a201659ff175c48d019a98ec3ac4e556dda273101c79fb2","license":"CC-BY-4.0","p21_id_equivalent":null,"fetched_at":null,"scope":{"classes":["BASIC DATA STRUCTURE","OCCURRENCE DATA STRUCTURE"],"domains":[],"exclude_domains":[]},"check_tree":{"narrative":"","condition_success":"","condition_failure":""}}
{"id":"364","authority":"CDISC","standard":"ADaM-IG","standard_ver":"1.1,1.2,1.3","severity":"Medium","message":"DOSEON or DOSCUMA is present and DOSEU is not present","source_document":"CDISC ADaM Conformance Rules v5.0","source_url":"https://www.cdisc.org/standards/foundational/adam/adam-conformance-rules-v5-0","source_version":"1","content_hash":"bb2b27607e0540d189be98f4b10c8b5c881788bc7cd579abb7b70dc40b160ee6","license":"CC-BY-4.0","p21_id_equivalent":null,"fetched_at":null,"scope":{"classes":"OCCURRENCE DATA STRUCTURE","domains":[],"exclude_domains":[]},"check_tree":{"narrative":"","condition_success":"","condition_failure":"DOSEON or DOSCUMA is present"}}
{"id":"365","authority":"CDISC","standard":"ADaM-IG","standard_ver":"1.0,1.1,1.2,1.3","severity":"Medium","message":"SDTM.EX is present and neither TRTEDT or TRTEDTM are present","source_document":"CDISC ADaM Conformance Rules v5.0","source_url":"https://www.cdisc.org/standards/foundational/adam/adam-conformance-rules-v5-0","source_version":"1","content_hash":"75ac604f6806b69c9cd7c28873ff7f235de63f89837b7b6afb16edb29c2b12b5","license":"CC-BY-4.0","p21_id_equivalent":null,"fetched_at":null,"scope":{"classes":"SUBJECT LEVEL ANALYSIS DATASET","domains":[],"exclude_domains":[]},"check_tree":{"narrative":"","condition_success":"","condition_failure":"SDTM.EX is present"}}
{"id":"366","authority":"CDISC","standard":"ADaM-IG","standard_ver":"1.0,1.1,1.2,1.3","severity":"Medium","message":"RANDDT is not present when RANDFL is equal to Y for at least one record","source_document":"CDISC ADaM Conformance Rules v5.0","source_url":"https://www.cdisc.org/standards/foundational/adam/adam-conformance-rules-v5-0","source_version":"1","content_hash":"e8f1a6311843a9f9409a015df5c02249432fcd1e88230ae520414c9e31a6fc8f","license":"CC-BY-4.0","p21_id_equivalent":null,"fetched_at":null,"scope":{"classes":"SUBJECT LEVEL ANALYSIS DATASET","domains":[],"exclude_domains":[]},"check_tree":{"narrative":"","condition_success":"","condition_failure":"RANDFL is equal to Y for at least one record"}}
{"id":"367","authority":"CDISC","standard":"ADaM-IG","standard_ver":"1.1,1.2,1.3","severity":"Medium","message":"The value of ADSL.USUBJID is equal to the value of DM.USUBJID and ADSL.ACTARM is not equal to DM.ACTARM","source_document":"CDISC ADaM Conformance Rules v5.0","source_url":"https://www.cdisc.org/standards/foundational/adam/adam-conformance-rules-v5-0","source_version":"1","content_hash":"59dd9095d376371e6846c82540d002937adaaa263f9df397984185f5796f06b6","license":"CC-BY-4.0","p21_id_equivalent":null,"fetched_at":null,"scope":{"classes":"SUBJECT LEVEL ANALYSIS DATASET","domains":[],"exclude_domains":[]},"check_tree":{"narrative":"","condition_success":"","condition_failure":"The value of ADSL.USUBJID is equal to the value of DM.USUBJID"}}
{"id":"368","authority":"CDISC","standard":"ADaM-IG","standard_ver":"1.0,1.1,1.2,1.3","severity":"Medium","message":"TRxxAGy is not present and both TRxxPGy and TRTxxA are present","source_document":"CDISC ADaM Conformance Rules v5.0","source_url":"https://www.cdisc.org/standards/foundational/adam/adam-conformance-rules-v5-0","source_version":"1","content_hash":"f20999365638061bff74ddc92d3a79ca052d75f7dbbea58807e3a20c9a01b160","license":"CC-BY-4.0","p21_id_equivalent":null,"fetched_at":null,"scope":{"classes":"SUBJECT LEVEL ANALYSIS DATASET","domains":[],"exclude_domains":[]},"check_tree":{"narrative":"","condition_success":"","condition_failure":"TRxxPGy and TRTxxA are present"}}
{"id":"369","authority":"CDISC","standard":"ADaM-IG","standard_ver":"1.0,1.1,1.2,1.3","severity":"Medium","message":"*DTF is populated and neither *DT nor *DTM is populated","source_document":"CDISC ADaM Conformance Rules v5.0","source_url":"https://www.cdisc.org/standards/foundational/adam/adam-conformance-rules-v5-0","source_version":"1","content_hash":"008ffab53183bd3696a8ba09367f627e7301b19e89e30773fa0f5f254b6bbc0b","license":"CC-BY-4.0","p21_id_equivalent":null,"fetched_at":null,"scope":{"classes":["BASIC DATA STRUCTURE","OCCURRENCE DATA STRUCTURE"],"domains":[],"exclude_domains":[]},"check_tree":{"narrative":"","condition_success":"","condition_failure":"*DTF is populated"}}
{"id":"37","authority":"CDISC","standard":"ADaM-IG","standard_ver":"1.0","severity":"Medium","message":"There is more than one value of a variable which has a suffix of GRyN for a given value of a variable with the same root name and suffix of GRy","source_document":"CDISC ADaM Conformance Rules v5.0","source_url":"https://www.cdisc.org/standards/foundational/adam/adam-conformance-rules-v5-0","source_version":"1","content_hash":"af900ff0374367724a201659ff175c48d019a98ec3ac4e556dda273101c79fb2","license":"CC-BY-4.0","p21_id_equivalent":null,"fetched_at":null,"scope":{"classes":"ALL","domains":[],"exclude_domains":[]},"check_tree":{"narrative":"","condition_success":"","condition_failure":""}}
{"id":"370","authority":"CDISC","standard":"ADaM-IG","standard_ver":"1.0,1.1,1.2,1.3","severity":"Medium","message":"*TMF is populated and neither *TM nor *DTM is populated","source_document":"CDISC ADaM Conformance Rules v5.0","source_url":"https://www.cdisc.org/standards/foundational/adam/adam-conformance-rules-v5-0","source_version":"1","content_hash":"d9ba272719adfab2de5a6baf3cd67a40833f816695b4ae710617aeb0439328a1","license":"CC-BY-4.0","p21_id_equivalent":null,"fetched_at":null,"scope":{"classes":["BASIC DATA STRUCTURE","OCCURRENCE DATA STRUCTURE"],"domains":[],"exclude_domains":[]},"check_tree":{"narrative":"","condition_success":"","condition_failure":"*TMF is populated"}}
{"id":"373","authority":"CDISC","standard":"ADaM-IG","standard_ver":"1.0,1.1,1.2,1.3","severity":"Medium","message":"CNSR is not present","source_document":"CDISC ADaM Conformance Rules v5.0","source_url":"https://www.cdisc.org/standards/foundational/adam/adam-conformance-rules-v5-0","source_version":"1","content_hash":"5f81478e54262077fa0763995bd3ad9583325cfc234e51cfc21a3d894cf94e91","license":"CC-BY-4.0","p21_id_equivalent":null,"fetched_at":null,"scope":{"classes":["BASIC DATA STRUCTURE","MEDICAL DEVICE BASIC DATA STRUCTURE","TIME-TO-EVENT","MEDICAL DEVICE TIME-TO-EVENT"],"domains":[],"exclude_domains":[]},"check_tree":{"all":[{"name":"CNSR","operator":"not_exists"}]}}
{"id":"374","authority":"CDISC","standard":"ADaM-IG","standard_ver":"1.0,1.1,1.2,1.3","severity":"Medium","message":"AVAL is not present","source_document":"CDISC ADaM Conformance Rules v5.0","source_url":"https://www.cdisc.org/standards/foundational/adam/adam-conformance-rules-v5-0","source_version":"1","content_hash":"11387a82bd28d24243de9854484419fed4d62e8a2b0b8d04c0168a305750fbc8","license":"CC-BY-4.0","p21_id_equivalent":null,"fetched_at":null,"scope":{"classes":["BASIC DATA STRUCTURE","MEDICAL DEVICE BASIC DATA STRUCTURE","TIME-TO-EVENT","MEDICAL DEVICE TIME-TO-EVENT"],"domains":[],"exclude_domains":[]},"check_tree":{"all":[{"name":"AVAL","operator":"not_exists"}]}}
{"id":"375","authority":"CDISC","standard":"ADaM-IG","standard_ver":"1.2,1.3","severity":"Medium","message":"On a given record, a variable which has a suffix of GRyN is populated and a variable with the same root name and suffix of GRy is not populated","source_document":"CDISC ADaM Conformance Rules v5.0","source_url":"https://www.cdisc.org/standards/foundational/adam/adam-conformance-rules-v5-0","source_version":"1","content_hash":"8ac577062d1b03782dedf211e037a894e6f33b7b82572a126c4aef183b369db6","license":"CC-BY-4.0","p21_id_equivalent":null,"fetched_at":null,"scope":{"classes":"ALL","domains":[],"exclude_domains":[]},"check_tree":{"expand":"stem,y","all":[{"name":"stemGRyN","operator":"non_empty"},{"name":"stemGRy","operator":"empty"}]}}
{"id":"376","authority":"CDISC","standard":"ADaM-IG","standard_ver":"1.2,1.3","severity":"Medium","message":"On a given record, a variable which has a suffix of GRy is populated and a variable with the same root name and suffix of GRyN is not populated","source_document":"CDISC ADaM Conformance Rules v5.0","source_url":"https://www.cdisc.org/standards/foundational/adam/adam-conformance-rules-v5-0","source_version":"1","content_hash":"109a4a3c00e34f85c9c6f3fbc81cce768ad7f9be778a43c14972fa0265e11208","license":"CC-BY-4.0","p21_id_equivalent":null,"fetched_at":null,"scope":{"classes":"ALL","domains":[],"exclude_domains":[]},"check_tree":{"expand":"stem,y","all":[{"name":"stemGRy","operator":"non_empty"},{"name":"stemGRyN","operator":"empty"}]}}
{"id":"377","authority":"CDISC","standard":"ADaM-IG","standard_ver":"1.2,1.3","severity":"Medium","message":"On a given record, TRTxxP is populated and TRTxxPN is not populated","source_document":"CDISC ADaM Conformance Rules v5.0","source_url":"https://www.cdisc.org/standards/foundational/adam/adam-conformance-rules-v5-0","source_version":"1","content_hash":"1b3754479928166c044e9cb1e43d36a47c8614e950e525fb0fb2f3a4ef7815d8","license":"CC-BY-4.0","p21_id_equivalent":null,"fetched_at":null,"scope":{"classes":"SUBJECT LEVEL ANALYSIS DATASET","domains":[],"exclude_domains":[]},"check_tree":{"expand":"xx","all":[{"name":"TRTxxP","operator":"non_empty"},{"name":"TRTxxPN","operator":"empty"}]}}
{"id":"378","authority":"CDISC","standard":"ADaM-IG","standard_ver":"1.2,1.3","severity":"Medium","message":"On a given record, TRTxxPN is populated and TRTxxP is not populated","source_document":"CDISC ADaM Conformance Rules v5.0","source_url":"https://www.cdisc.org/standards/foundational/adam/adam-conformance-rules-v5-0","source_version":"1","content_hash":"edad1f5033d21e68872c54053e71f878bcf054dda6e8f6fc3ec25ccbaa44f7ea","license":"CC-BY-4.0","p21_id_equivalent":null,"fetched_at":null,"scope":{"classes":"SUBJECT LEVEL ANALYSIS DATASET","domains":[],"exclude_domains":[]},"check_tree":{"expand":"xx","all":[{"name":"TRTxxPN","operator":"non_empty"},{"name":"TRTxxP","operator":"empty"}]}}
{"id":"379","authority":"CDISC","standard":"ADaM-IG","standard_ver":"1.2,1.3","severity":"Medium","message":"On a given record, BTOXGRN is populated and BTOXGR is not populated","source_document":"CDISC ADaM Conformance Rules v5.0","source_url":"https://www.cdisc.org/standards/foundational/adam/adam-conformance-rules-v5-0","source_version":"1","content_hash":"503133b8fd0b7b91c626a57140a9b2c171fb88dbb0e00229f82bfef697778e26","license":"CC-BY-4.0","p21_id_equivalent":null,"fetched_at":null,"scope":{"classes":"BASIC DATA STRUCTURE","domains":[],"exclude_domains":[]},"check_tree":{"all":[{"name":"BTOXGRN","operator":"non_empty"},{"name":"BTOXGR","operator":"empty"}]}}
{"id":"38","authority":"CDISC","standard":"ADaM-IG","standard_ver":"1.0","severity":"Medium","message":"There is more than one value of a variable which has a suffix of GRy for a given value of a variable with the same root name and suffix of GRyN","source_document":"CDISC ADaM Conformance Rules v5.0","source_url":"https://www.cdisc.org/standards/foundational/adam/adam-conformance-rules-v5-0","source_version":"1","content_hash":"af900ff0374367724a201659ff175c48d019a98ec3ac4e556dda273101c79fb2","license":"CC-BY-4.0","p21_id_equivalent":null,"fetched_at":null,"scope":{"classes":"ALL","domains":[],"exclude_domains":[]},"check_tree":{"narrative":"","condition_success":"","condition_failure":""}}
{"id":"380","authority":"CDISC","standard":"ADaM-IG","standard_ver":"1.2,1.3","severity":"Medium","message":"On a given record, BTOXGR is populated and BTOXGRN is not populated","source_document":"CDISC ADaM Conformance Rules v5.0","source_url":"https://www.cdisc.org/standards/foundational/adam/adam-conformance-rules-v5-0","source_version":"1","content_hash":"385d551436393a01e1c1fcb1af755efc45e580c46d0c97036f899804882030db","license":"CC-BY-4.0","p21_id_equivalent":null,"fetched_at":null,"scope":{"classes":"BASIC DATA STRUCTURE","domains":[],"exclude_domains":[]},"check_tree":{"all":[{"name":"BTOXGR","operator":"non_empty"},{"name":"BTOXGRN","operator":"empty"}]}}
{"id":"381","authority":"CDISC","standard":"ADaM-IG","standard_ver":"1.2,1.3","severity":"Medium","message":"Within a parameter, there is more than one value of BTOXGR for a given value of BTOXGRN, considering only those rows on which both variables are populated","source_document":"CDISC ADaM Conformance Rules v5.0","source_url":"https://www.cdisc.org/standards/foundational/adam/adam-conformance-rules-v5-0","source_version":"1","content_hash":"7138b10a58b3354aeb5c42915fb5fba6a7be1dc4966647571607a6751d0a332e","license":"CC-BY-4.0","p21_id_equivalent":null,"fetched_at":null,"scope":{"classes":"BASIC DATA STRUCTURE","domains":[],"exclude_domains":[]},"check_tree":{"narrative":"","condition_success":"","condition_failure":"On rows where both BTOXGR and BTOXGRN are both populated"}}
{"id":"382","authority":"CDISC","standard":"ADaM-IG","standard_ver":"1.2,1.3","severity":"Medium","message":"Within a parameter, there is more than one value of BTOXGRN for a given value of BTOXGR, considering only those rows on which both variables are populated","source_document":"CDISC ADaM Conformance Rules v5.0","source_url":"https://www.cdisc.org/standards/foundational/adam/adam-conformance-rules-v5-0","source_version":"1","content_hash":"23d627d58b04dfea1f86a3b6f1c2452c9af908ba13898ed2fc10e8722807497b","license":"CC-BY-4.0","p21_id_equivalent":null,"fetched_at":null,"scope":{"classes":"BASIC DATA STRUCTURE","domains":[],"exclude_domains":[]},"check_tree":{"narrative":"","condition_success":"","condition_failure":"On rows where both BTOXGRN and BTOXGR are both populated"}}
{"id":"383","authority":"CDISC","standard":"ADaM-IG","standard_ver":"1.2,1.3","severity":"Medium","message":"Within a parameter, there is more than one value of BTOXGRL for a given value of BTOXGRLN, considering only those rows on which both variables are populated","source_document":"CDISC ADaM Conformance Rules v5.0","source_url":"https://www.cdisc.org/standards/foundational/adam/adam-conformance-rules-v5-0","source_version":"1","content_hash":"8dd6f4329fcfae50137553d160035de578241a61a390387d7bb0cb57c2a8f37b","license":"CC-BY-4.0","p21_id_equivalent":null,"fetched_at":null,"scope":{"classes":"BASIC DATA STRUCTURE","domains":[],"exclude_domains":[]},"check_tree":{"narrative":"","condition_success":"","condition_failure":"On rows where both BTOXGRL and BTOXGRLN are both populated"}}
{"id":"384","authority":"CDISC","standard":"ADaM-IG","standard_ver":"1.2,1.3","severity":"Medium","message":"Within a parameter, there is more than one value of BTOXGRLN for a given value of BTOXGRL, considering only those rows on which both variables are populated","source_document":"CDISC ADaM Conformance Rules v5.0","source_url":"https://www.cdisc.org/standards/foundational/adam/adam-conformance-rules-v5-0","source_version":"1","content_hash":"8c382989c106c4e0259861035e4a061c98604b8c3a733f9c80d478958a6cfe87","license":"CC-BY-4.0","p21_id_equivalent":null,"fetched_at":null,"scope":{"classes":"BASIC DATA STRUCTURE","domains":[],"exclude_domains":[]},"check_tree":{"narrative":"","condition_success":"","condition_failure":"On rows where both BTOXGRLN and BTOXGRL are both populated"}}
{"id":"385","authority":"CDISC","standard":"ADaM-IG","standard_ver":"1.2,1.3","severity":"Medium","message":"On a given record, BTOXGRL is populated and BTOXGRLN is not populated","source_document":"CDISC ADaM Conformance Rules v5.0","source_url":"https://www.cdisc.org/standards/foundational/adam/adam-conformance-rules-v5-0","source_version":"1","content_hash":"16f0f4979d24a53c247484132998ae38c6b372fcbbd77a10cc301e65bdf932fc","license":"CC-BY-4.0","p21_id_equivalent":null,"fetched_at":null,"scope":{"classes":"BASIC DATA STRUCTURE","domains":[],"exclude_domains":[]},"check_tree":{"all":[{"name":"BTOXGRL","operator":"non_empty"},{"name":"BTOXGRLN","operator":"empty"}]}}
{"id":"386","authority":"CDISC","standard":"ADaM-IG","standard_ver":"1.2,1.3","severity":"Medium","message":"On a given record, BTOXGRLN is populated and BTOXGRL is not populated","source_document":"CDISC ADaM Conformance Rules v5.0","source_url":"https://www.cdisc.org/standards/foundational/adam/adam-conformance-rules-v5-0","source_version":"1","content_hash":"b3fbaa7c1c536a8b1a15e3359d03851958a79f576fe6e1d07b4e3c353ee0a68e","license":"CC-BY-4.0","p21_id_equivalent":null,"fetched_at":null,"scope":{"classes":"BASIC DATA STRUCTURE","domains":[],"exclude_domains":[]},"check_tree":{"all":[{"name":"BTOXGRLN","operator":"non_empty"},{"name":"BTOXGRL","operator":"empty"}]}}
{"id":"387","authority":"CDISC","standard":"ADaM-IG","standard_ver":"1.2,1.3","severity":"Medium","message":"Within a parameter, there is more than one value of BTOXGRH for a given value of BTOXGRHN, considering only those rows on which both variables are populated","source_document":"CDISC ADaM Conformance Rules v5.0","source_url":"https://www.cdisc.org/standards/foundational/adam/adam-conformance-rules-v5-0","source_version":"1","content_hash":"f2e66d036d6b19ccaa1efdc3e627139e09bda469754e82906336e6d1c32eb947","license":"CC-BY-4.0","p21_id_equivalent":null,"fetched_at":null,"scope":{"classes":"BASIC DATA STRUCTURE","domains":[],"exclude_domains":[]},"check_tree":{"narrative":"","condition_success":"","condition_failure":"On rows where both BTOXGRH and BTOXGRHN are both populated"}}
{"id":"388","authority":"CDISC","standard":"ADaM-IG","standard_ver":"1.2,1.3","severity":"Medium","message":"Within a parameter, there is more than one value of BTOXGRHN for a given value of BTOXGRH, considering only those rows on which both variables are populated","source_document":"CDISC ADaM Conformance Rules v5.0","source_url":"https://www.cdisc.org/standards/foundational/adam/adam-conformance-rules-v5-0","source_version":"1","content_hash":"8e3162369ddf7b5f946b0165158f9d93985586cdb8368a21d620d3bd7d8fe918","license":"CC-BY-4.0","p21_id_equivalent":null,"fetched_at":null,"scope":{"classes":"BASIC DATA STRUCTURE","domains":[],"exclude_domains":[]},"check_tree":{"narrative":"","condition_success":"","condition_failure":"On rows where both BTOXGRHN and BTOXGRH are both populated"}}
{"id":"389","authority":"CDISC","standard":"ADaM-IG","standard_ver":"1.2,1.3","severity":"Medium","message":"On a given record, BTOXGRH is populated and BTOXGRHN is not populated","source_document":"CDISC ADaM Conformance Rules v5.0","source_url":"https://www.cdisc.org/standards/foundational/adam/adam-conformance-rules-v5-0","source_version":"1","content_hash":"851a126e27da619f249cb2fdc8a28765b0ba8aedb774d2d9201c0a994eeb9aa7","license":"CC-BY-4.0","p21_id_equivalent":null,"fetched_at":null,"scope":{"classes":"BASIC DATA STRUCTURE","domains":[],"exclude_domains":[]},"check_tree":{"all":[{"name":"BTOXGRH","operator":"non_empty"},{"name":"BTOXGRHN","operator":"empty"}]}}
{"id":"39","authority":"CDISC","standard":"ADaM-IG","standard_ver":"1.0,1.1,1.2,1.3","severity":"Medium","message":"A variable with a suffix of DTF has a value that is not within Controlled Terminology for DATEFL","source_document":"CDISC ADaM Conformance Rules v5.0","source_url":"https://www.cdisc.org/standards/foundational/adam/adam-conformance-rules-v5-0","source_version":"1","content_hash":"f243aa1b6fc309eb51bff1d78f273f785ad6673b9dfb6cff8fc09cde41062b7b","license":"CC-BY-4.0","p21_id_equivalent":null,"fetched_at":null,"scope":{"classes":"ALL","domains":[],"exclude_domains":[]},"check_tree":{"narrative":"","condition_success":"","condition_failure":"Variable with a suffix of DTF is present"}}
{"id":"390","authority":"CDISC","standard":"ADaM-IG","standard_ver":"1.2,1.3","severity":"Medium","message":"On a given record, BTOXGRHN is populated and BTOXGRH is not populated","source_document":"CDISC ADaM Conformance Rules v5.0","source_url":"https://www.cdisc.org/standards/foundational/adam/adam-conformance-rules-v5-0","source_version":"1","content_hash":"a180dac7ed0f674fa7f600504c8321e38a07c2ae65767f5c76f2ad9ea1c261ec","license":"CC-BY-4.0","p21_id_equivalent":null,"fetched_at":null,"scope":{"classes":"BASIC DATA STRUCTURE","domains":[],"exclude_domains":[]},"check_tree":{"all":[{"name":"BTOXGRHN","operator":"non_empty"},{"name":"BTOXGRH","operator":"empty"}]}}
{"id":"391","authority":"CDISC","standard":"ADaM-IG","standard_ver":"1.2,1.3","severity":"Medium","message":"On a given record, ATOXGR is populated and ATOXGRN is not populated","source_document":"CDISC ADaM Conformance Rules v5.0","source_url":"https://www.cdisc.org/standards/foundational/adam/adam-conformance-rules-v5-0","source_version":"1","content_hash":"8c58b18dc85c3157a4f65454b274abbca3ba25d8673549670aade4f705c55d43","license":"CC-BY-4.0","p21_id_equivalent":null,"fetched_at":null,"scope":{"classes":["BASIC DATA STRUCTURE","OCCURRENCE DATA STRUCTURE"],"domains":[],"exclude_domains":[]},"check_tree":{"all":[{"name":"ATOXGR","operator":"non_empty"},{"name":"ATOXGRN","operator":"empty"}]}}
{"id":"392","authority":"CDISC","standard":"ADaM-IG","standard_ver":"1.2,1.3","severity":"Medium","message":"On a given record, ATOXGRN is populated and ATOXGR is not populated","source_document":"CDISC ADaM Conformance Rules v5.0","source_url":"https://www.cdisc.org/standards/foundational/adam/adam-conformance-rules-v5-0","source_version":"1","content_hash":"6650a4045409107e2f0c430c10999c0a5c385cc06cf5de4767e819714b6defba","license":"CC-BY-4.0","p21_id_equivalent":null,"fetched_at":null,"scope":{"classes":["BASIC DATA STRUCTURE","OCCURRENCE DATA STRUCTURE"],"domains":[],"exclude_domains":[]},"check_tree":{"all":[{"name":"ATOXGRN","operator":"non_empty"},{"name":"ATOXGR","operator":"empty"}]}}
{"id":"393","authority":"CDISC","standard":"ADaM-IG","standard_ver":"1.2,1.3","severity":"Medium","message":"On a given record, ATOXGRL is populated and ATOXGRLN is not populated","source_document":"CDISC ADaM Conformance Rules v5.0","source_url":"https://www.cdisc.org/standards/foundational/adam/adam-conformance-rules-v5-0","source_version":"1","content_hash":"60abf45cbdddac10257afad663739200fdd4bd229614744a62207944b2ff80ca","license":"CC-BY-4.0","p21_id_equivalent":null,"fetched_at":null,"scope":{"classes":"BASIC DATA STRUCTURE","domains":[],"exclude_domains":[]},"check_tree":{"all":[{"name":"ATOXGRL","operator":"non_empty"},{"name":"ATOXGRLN","operator":"empty"}]}}
{"id":"394","authority":"CDISC","standard":"ADaM-IG","standard_ver":"1.2,1.3","severity":"Medium","message":"On a given record, ATOXGRLN is populated and ATOXGRL is not populated","source_document":"CDISC ADaM Conformance Rules v5.0","source_url":"https://www.cdisc.org/standards/foundational/adam/adam-conformance-rules-v5-0","source_version":"1","content_hash":"f8128e7740c73eab618f3891566abea4e56ae326e07905a47dec97c43b8a5ff2","license":"CC-BY-4.0","p21_id_equivalent":null,"fetched_at":null,"scope":{"classes":"BASIC DATA STRUCTURE","domains":[],"exclude_domains":[]},"check_tree":{"all":[{"name":"ATOXGRLN","operator":"non_empty"},{"name":"ATOXGRL","operator":"empty"}]}}
{"id":"395","authority":"CDISC","standard":"ADaM-IG","standard_ver":"1.2,1.3","severity":"Medium","message":"Within a parameter, there is more than one value of ATOXGRL for a given value of ATOXGRLN, considering only those rows on which both variables are populated","source_document":"CDISC ADaM Conformance Rules v5.0","source_url":"https://www.cdisc.org/standards/foundational/adam/adam-conformance-rules-v5-0","source_version":"1","content_hash":"3a0cdc238c8743f36b631777c11044d65d4aa66322fd2f17686dec670b1371a7","license":"CC-BY-4.0","p21_id_equivalent":null,"fetched_at":null,"scope":{"classes":"BASIC DATA STRUCTURE","domains":[],"exclude_domains":[]},"check_tree":{"narrative":"","condition_success":"","condition_failure":"On rows where both ATOXGRL and ATOXGRLN are both populated"}}
{"id":"396","authority":"CDISC","standard":"ADaM-IG","standard_ver":"1.2,1.3","severity":"Medium","message":"Within a parameter, there is more than one value of ATOXGRLN for a given value of ATOXGRL, considering only those rows on which both variables are populated","source_document":"CDISC ADaM Conformance Rules v5.0","source_url":"https://www.cdisc.org/standards/foundational/adam/adam-conformance-rules-v5-0","source_version":"1","content_hash":"e024879bd2cadcbb865d613fa094d2969016f7afed4d48248407c16f2ab748f6","license":"CC-BY-4.0","p21_id_equivalent":null,"fetched_at":null,"scope":{"classes":"BASIC DATA STRUCTURE","domains":[],"exclude_domains":[]},"check_tree":{"narrative":"","condition_success":"","condition_failure":"On rows where both ATOXGRLN and ATOXGRL are both populated"}}
{"id":"397","authority":"CDISC","standard":"ADaM-IG","standard_ver":"1.2,1.3","severity":"Medium","message":"On a given record, ATOXGRH is populated and ATOXGRHN is not populated","source_document":"CDISC ADaM Conformance Rules v5.0","source_url":"https://www.cdisc.org/standards/foundational/adam/adam-conformance-rules-v5-0","source_version":"1","content_hash":"b87a0e4e8e7c4c85ee080a93060711e934d42d3a5387069f59300951922c0cf9","license":"CC-BY-4.0","p21_id_equivalent":null,"fetched_at":null,"scope":{"classes":"BASIC DATA STRUCTURE","domains":[],"exclude_domains":[]},"check_tree":{"all":[{"name":"ATOXGRH","operator":"non_empty"},{"name":"ATOXGRHN","operator":"empty"}]}}
{"id":"398","authority":"CDISC","standard":"ADaM-IG","standard_ver":"1.2,1.3","severity":"Medium","message":"On a given record, ATOXGRHN is populated and ATOXGRH is not populated","source_document":"CDISC ADaM Conformance Rules v5.0","source_url":"https://www.cdisc.org/standards/foundational/adam/adam-conformance-rules-v5-0","source_version":"1","content_hash":"e6eca31df25c6333e83e00c3b53a10b8762de1ae7382489ea40d07c16d4f0b7e","license":"CC-BY-4.0","p21_id_equivalent":null,"fetched_at":null,"scope":{"classes":"BASIC DATA STRUCTURE","domains":[],"exclude_domains":[]},"check_tree":{"all":[{"name":"ATOXGRHN","operator":"non_empty"},{"name":"ATOXGRH","operator":"empty"}]}}
{"id":"399","authority":"CDISC","standard":"ADaM-IG","standard_ver":"1.2,1.3","severity":"Medium","message":"Within a parameter, there is more than one value of ATOXGRH for a given value of ATOXGRHN, considering only those rows on which both variables are populated","source_document":"CDISC ADaM Conformance Rules v5.0","source_url":"https://www.cdisc.org/standards/foundational/adam/adam-conformance-rules-v5-0","source_version":"1","content_hash":"25e10697ca7eb7dc103240b0941f0099b8fb7151b9e899dcdda6ee40e0b8fb79","license":"CC-BY-4.0","p21_id_equivalent":null,"fetched_at":null,"scope":{"classes":"BASIC DATA STRUCTURE","domains":[],"exclude_domains":[]},"check_tree":{"narrative":"","condition_success":"","condition_failure":"On rows where both ATOXGRH and ATOXGRHN are both populated"}}
{"id":"40","authority":"CDISC","standard":"ADaM-IG","standard_ver":"1.0,1.1,1.2,1.3","severity":"Medium","message":"A variable with a suffix of TMF has a value that is not within Controlled Terminology for TIMEFL","source_document":"CDISC ADaM Conformance Rules v5.0","source_url":"https://www.cdisc.org/standards/foundational/adam/adam-conformance-rules-v5-0","source_version":"1","content_hash":"93bf65163ddd7e2e17651568e58ed39e314da72aba2e8d2bc642e2d1664104a1","license":"CC-BY-4.0","p21_id_equivalent":null,"fetched_at":null,"scope":{"classes":"ALL","domains":[],"exclude_domains":[]},"check_tree":{"narrative":"","condition_success":"","condition_failure":"Variable with a suffix of TMF"}}
{"id":"400","authority":"CDISC","standard":"ADaM-IG","standard_ver":"1.2,1.3","severity":"Medium","message":"Within a parameter, there is more than one value of ATOXGRHN for a given value of ATOXGRH, considering only those rows on which both variables are populated","source_document":"CDISC ADaM Conformance Rules v5.0","source_url":"https://www.cdisc.org/standards/foundational/adam/adam-conformance-rules-v5-0","source_version":"1","content_hash":"c4498cbac2a944edcbccf75ebcbf71d21c1754247a41cfecc9b10d423422fa01","license":"CC-BY-4.0","p21_id_equivalent":null,"fetched_at":null,"scope":{"classes":"BASIC DATA STRUCTURE","domains":[],"exclude_domains":[]},"check_tree":{"narrative":"","condition_success":"","condition_failure":"On rows where both ATOXGRHN and ATOXGRH are both populated"}}
{"id":"401","authority":"CDISC","standard":"ADaM-IG","standard_ver":"1.2,1.3","severity":"Medium","message":"AVAL is not populated or ATOXGRL is not populated, and ATOXDSCL is populated","source_document":"CDISC ADaM Conformance Rules v5.0","source_url":"https://www.cdisc.org/standards/foundational/adam/adam-conformance-rules-v5-0","source_version":"1","content_hash":"177b602718722f07359d03a24bc542b6c62b723755755fd1c69040c1c441b1c3","license":"CC-BY-4.0","p21_id_equivalent":null,"fetched_at":null,"scope":{"classes":"BASIC DATA STRUCTURE","domains":[],"exclude_domains":[]},"check_tree":{"narrative":"","condition_success":"","condition_failure":"ATOXDSCL is populated"}}
{"id":"402","authority":"CDISC","standard":"ADaM-IG","standard_ver":"1.2,1.3","severity":"Medium","message":"AVAL is not populated or ATOXGRH is not populated, and ATOXDSCH is populated","source_document":"CDISC ADaM Conformance Rules v5.0","source_url":"https://www.cdisc.org/standards/foundational/adam/adam-conformance-rules-v5-0","source_version":"1","content_hash":"d99cee8ae4b31dccef555b4e6d591a9e6ebc0dd0d1e9f8f117c662c683f0187c","license":"CC-BY-4.0","p21_id_equivalent":null,"fetched_at":null,"scope":{"classes":"BASIC DATA STRUCTURE","domains":[],"exclude_domains":[]},"check_tree":{"narrative":"","condition_success":"","condition_failure":"ATOXDSCH is populated"}}
{"id":"403","authority":"CDISC","standard":"ADaM-IG","standard_ver":"1.2,1.3","severity":"Medium","message":"Within a subject, there is more than one value of ATOXDSCL for a given value of PARAM, considering only those rows on which both variables are populated","source_document":"CDISC ADaM Conformance Rules v5.0","source_url":"https://www.cdisc.org/standards/foundational/adam/adam-conformance-rules-v5-0","source_version":"1","content_hash":"72729e7b7bdf6f867d7a39da227249f1346b3558f4fa5d39a2bb08f476ce341e","license":"CC-BY-4.0","p21_id_equivalent":null,"fetched_at":null,"scope":{"classes":"BASIC DATA STRUCTURE","domains":[],"exclude_domains":[]},"check_tree":{"narrative":"","condition_success":"","condition_failure":"On rows where both ATOXDSCL and PARAM are both populated"}}
{"id":"405","authority":"CDISC","standard":"ADaM-IG","standard_ver":"1.2,1.3","severity":"Medium","message":"Within a subject, there is more than one value of ATOXDSCH for a given value of PARAM, considering only those rows on which both variables are populated","source_document":"CDISC ADaM Conformance Rules v5.0","source_url":"https://www.cdisc.org/standards/foundational/adam/adam-conformance-rules-v5-0","source_version":"1","content_hash":"1d25cdea35367b589e52b77493291cab393508b8603179048a9b573896a20ae3","license":"CC-BY-4.0","p21_id_equivalent":null,"fetched_at":null,"scope":{"classes":"BASIC DATA STRUCTURE","domains":[],"exclude_domains":[]},"check_tree":{"narrative":"","condition_success":"","condition_failure":"On rows where both ATOXDSCH and PARAM are both populated"}}
{"id":"407","authority":"CDISC","standard":"ADaM-IG","standard_ver":"1.2,1.3","severity":"Medium","message":"On a given record, ABLFN is populated and ABLFL is not populated","source_document":"CDISC ADaM Conformance Rules v5.0","source_url":"https://www.cdisc.org/standards/foundational/adam/adam-conformance-rules-v5-0","source_version":"1","content_hash":"edf4402b62c95a6cc38b42553f36c8011996a98f58c4cb4182c60d2704f9ff4a","license":"CC-BY-4.0","p21_id_equivalent":null,"fetched_at":null,"scope":{"classes":"BASIC DATA STRUCTURE","domains":[],"exclude_domains":[]},"check_tree":{"all":[{"name":"ABLFN","operator":"non_empty"},{"name":"ABLFL","operator":"empty"}]}}
{"id":"408","authority":"CDISC","standard":"ADaM-IG","standard_ver":"1.2,1.3","severity":"Medium","message":"On a given record, ABLFL is populated and ABLFN is not populated","source_document":"CDISC ADaM Conformance Rules v5.0","source_url":"https://www.cdisc.org/standards/foundational/adam/adam-conformance-rules-v5-0","source_version":"1","content_hash":"887af5e03eb78d2307494551bd603242ba0b20058d9216ee20f64a7a12f974f3","license":"CC-BY-4.0","p21_id_equivalent":null,"fetched_at":null,"scope":{"classes":"BASIC DATA STRUCTURE","domains":[],"exclude_domains":[]},"check_tree":{"all":[{"name":"ABLFL","operator":"non_empty"},{"name":"ABLFN","operator":"empty"}]}}
{"id":"409","authority":"CDISC","standard":"ADaM-IG","standard_ver":"1.2,1.3","severity":"Medium","message":"There is more than one value of ABLFN for a given value of ABLFL, considering only those rows on which both variables are populated","source_document":"CDISC ADaM Conformance Rules v5.0","source_url":"https://www.cdisc.org/standards/foundational/adam/adam-conformance-rules-v5-0","source_version":"1","content_hash":"72d5c882064c057878bbb106cab6bb68429e805c8078a1a778fa344479cae197","license":"CC-BY-4.0","p21_id_equivalent":null,"fetched_at":null,"scope":{"classes":"BASIC DATA STRUCTURE","domains":[],"exclude_domains":[]},"check_tree":{"all":[{"name":"ABLFL","operator":"is_not_unique_relationship","value":{"related_name":"ABLFN"}}]}}
{"id":"41","authority":"CDISC","standard":"ADaM-IG","standard_ver":"1.0,1.1,1.2,1.3","severity":"Medium","message":"A numeric variable with a suffix of DT does not have a date format","source_document":"CDISC ADaM Conformance Rules v5.0","source_url":"https://www.cdisc.org/standards/foundational/adam/adam-conformance-rules-v5-0","source_version":"1","content_hash":"b782ce560ec83c63a3ebff4be4a44e70a443f2f3e5222a1aa388ef18e3c4b643","license":"CC-BY-4.0","p21_id_equivalent":null,"fetched_at":null,"scope":{"classes":"ALL","domains":[],"exclude_domains":[]},"check_tree":{"narrative":"","condition_success":"","condition_failure":"Numeric variable with a suffix of DT"}}
{"id":"410","authority":"CDISC","standard":"ADaM-IG","standard_ver":"1.2,1.3","severity":"Medium","message":"There is more than one value of ABLFL for a given value of ABLFN, considering only those rows on which both variables are populated","source_document":"CDISC ADaM Conformance Rules v5.0","source_url":"https://www.cdisc.org/standards/foundational/adam/adam-conformance-rules-v5-0","source_version":"1","content_hash":"e9f8d67e77d5ce59edd6755f42c7c2585ebb8b6759f98097b055b9588f84caa7","license":"CC-BY-4.0","p21_id_equivalent":null,"fetched_at":null,"scope":{"classes":"BASIC DATA STRUCTURE","domains":[],"exclude_domains":[]},"check_tree":{"all":[{"name":"ABLFN","operator":"is_not_unique_relationship","value":{"related_name":"ABLFL"}}]}}
{"id":"411","authority":"CDISC","standard":"ADaM-IG","standard_ver":"1.2,1.3","severity":"Medium","message":"On a given record, ANLzzFN is populated and ANLzzFL is not populated","source_document":"CDISC ADaM Conformance Rules v5.0","source_url":"https://www.cdisc.org/standards/foundational/adam/adam-conformance-rules-v5-0","source_version":"1","content_hash":"1ad7756b0c027723b81ea745ae0b17486170c0a82ff222960b8f30193dcf72f1","license":"CC-BY-4.0","p21_id_equivalent":null,"fetched_at":null,"scope":{"classes":"BASIC DATA STRUCTURE","domains":[],"exclude_domains":[]},"check_tree":{"expand":"zz","all":[{"name":"ANLzzFN","operator":"non_empty"},{"name":"ANLzzFL","operator":"empty"}]}}
{"id":"412","authority":"CDISC","standard":"ADaM-IG","standard_ver":"1.2,1.3","severity":"Medium","message":"On a given record, ANLzzFL is populated and ANLzzFN is not populated","source_document":"CDISC ADaM Conformance Rules v5.0","source_url":"https://www.cdisc.org/standards/foundational/adam/adam-conformance-rules-v5-0","source_version":"1","content_hash":"3f0fce196e46b80eda8ca4174863c71c1f2d64481ed54c44bd99783a9b694781","license":"CC-BY-4.0","p21_id_equivalent":null,"fetched_at":null,"scope":{"classes":"BASIC DATA STRUCTURE","domains":[],"exclude_domains":[]},"check_tree":{"expand":"zz","all":[{"name":"ANLzzFL","operator":"non_empty"},{"name":"ANLzzFN","operator":"empty"}]}}
{"id":"413","authority":"CDISC","standard":"ADaM-IG","standard_ver":"1.2,1.3","severity":"Medium","message":"There is more than one value of ANLzzFN for a given value of ANLzzFL, considering only those rows on which both variables are populated","source_document":"CDISC ADaM Conformance Rules v5.0","source_url":"https://www.cdisc.org/standards/foundational/adam/adam-conformance-rules-v5-0","source_version":"1","content_hash":"9814dadaaa887522f87e62764b77567ab9e3d6e734cf863cee667fb002ac07f8","license":"CC-BY-4.0","p21_id_equivalent":null,"fetched_at":null,"scope":{"classes":"BASIC DATA STRUCTURE","domains":[],"exclude_domains":[]},"check_tree":{"narrative":"","condition_success":"","condition_failure":"On rows where both ANLzzFN and ANLzzFL are both populated."}}
{"id":"414","authority":"CDISC","standard":"ADaM-IG","standard_ver":"1.2,1.3","severity":"Medium","message":"There is more than one value of ANLzzFL for a given value of ANLzzFN , considering only those rows on which both variables are populated","source_document":"CDISC ADaM Conformance Rules v5.0","source_url":"https://www.cdisc.org/standards/foundational/adam/adam-conformance-rules-v5-0","source_version":"1","content_hash":"d85ce39947ad34b49ea55d0fb1450234bac4f52ebc10372dec0ad3060ac5f03e","license":"CC-BY-4.0","p21_id_equivalent":null,"fetched_at":null,"scope":{"classes":"BASIC DATA STRUCTURE","domains":[],"exclude_domains":[]},"check_tree":{"narrative":"","condition_success":"","condition_failure":"On rows where both ANLzzFL and ANLzzFN  are both populated."}}
{"id":"415","authority":"CDISC","standard":"ADaM-IG","standard_ver":"1.2,1.3","severity":"Medium","message":"On a given record, TRTSEQPN is populated and TRTSEQP is not populated","source_document":"CDISC ADaM Conformance Rules v5.0","source_url":"https://www.cdisc.org/standards/foundational/adam/adam-conformance-rules-v5-0","source_version":"1","content_hash":"14ea76a57f7cc48055011d924e3add1878791158689c5b8a88785f9fc52494d1","license":"CC-BY-4.0","p21_id_equivalent":null,"fetched_at":null,"scope":{"classes":"SUBJECT LEVEL ANALYSIS DATASET","domains":[],"exclude_domains":[]},"check_tree":{"all":[{"name":"TRTSEQPN","operator":"non_empty"},{"name":"TRTSEQP","operator":"empty"}]}}
{"id":"416","authority":"CDISC","standard":"ADaM-IG","standard_ver":"1.2,1.3","severity":"Medium","message":"On a given record, TRTSEQP is populated and TRTSEQPN is not populated","source_document":"CDISC ADaM Conformance Rules v5.0","source_url":"https://www.cdisc.org/standards/foundational/adam/adam-conformance-rules-v5-0","source_version":"1","content_hash":"6f59555415fb1d237bb1616aa7e1bb33e8da3a82a09ff168176088cce4e0012a","license":"CC-BY-4.0","p21_id_equivalent":null,"fetched_at":null,"scope":{"classes":"SUBJECT LEVEL ANALYSIS DATASET","domains":[],"exclude_domains":[]},"check_tree":{"all":[{"name":"TRTSEQP","operator":"non_empty"},{"name":"TRTSEQPN","operator":"empty"}]}}
{"id":"417","authority":"CDISC","standard":"ADaM-IG","standard_ver":"1.2,1.3","severity":"Medium","message":"On a given record, TRTSEQAN is populated and TRTSEQA is not populated","source_document":"CDISC ADaM Conformance Rules v5.0","source_url":"https://www.cdisc.org/standards/foundational/adam/adam-conformance-rules-v5-0","source_version":"1","content_hash":"8eff61907ad1aa24df0a16d1446cbc084277f961dc7b3da5561dccfa50c3daae","license":"CC-BY-4.0","p21_id_equivalent":null,"fetched_at":null,"scope":{"classes":"SUBJECT LEVEL ANALYSIS DATASET","domains":[],"exclude_domains":[]},"check_tree":{"all":[{"name":"TRTSEQAN","operator":"non_empty"},{"name":"TRTSEQA","operator":"empty"}]}}
{"id":"418","authority":"CDISC","standard":"ADaM-IG","standard_ver":"1.2,1.3","severity":"Medium","message":"On a given record, TRTSEQA is populated and TRTSEQAN is not populated","source_document":"CDISC ADaM Conformance Rules v5.0","source_url":"https://www.cdisc.org/standards/foundational/adam/adam-conformance-rules-v5-0","source_version":"1","content_hash":"09f32da46aa38ddf55fb3dcc2ce9e58430aff39fbefb1785064c7c45e8289269","license":"CC-BY-4.0","p21_id_equivalent":null,"fetched_at":null,"scope":{"classes":"SUBJECT LEVEL ANALYSIS DATASET","domains":[],"exclude_domains":[]},"check_tree":{"all":[{"name":"TRTSEQA","operator":"non_empty"},{"name":"TRTSEQAN","operator":"empty"}]}}
{"id":"419","authority":"CDISC","standard":"ADaM-IG","standard_ver":"1.2,1.3","severity":"Medium","message":"On a given record, TRxxPGyN is populated and TRxxPGy is not populated","source_document":"CDISC ADaM Conformance Rules v5.0","source_url":"https://www.cdisc.org/standards/foundational/adam/adam-conformance-rules-v5-0","source_version":"1","content_hash":"66402afca4de2398af8efb8ab99057cecfca57d1b3ee41f49520d55e61f10360","license":"CC-BY-4.0","p21_id_equivalent":null,"fetched_at":null,"scope":{"classes":"SUBJECT LEVEL ANALYSIS DATASET","domains":[],"exclude_domains":[]},"check_tree":{"expand":"xx,y","all":[{"name":"TRxxPGyN","operator":"non_empty"},{"name":"TRxxPGy","operator":"empty"}]}}
{"id":"42","authority":"CDISC","standard":"ADaM-IG","standard_ver":"1.0,1.1,1.2,1.3","severity":"Medium","message":"A numeric variable with a suffix of TM does not have a time format, excluding ARELTM and variables with a suffix of DTM","source_document":"CDISC ADaM Conformance Rules v5.0","source_url":"https://www.cdisc.org/standards/foundational/adam/adam-conformance-rules-v5-0","source_version":"1","content_hash":"34531661e24413e00e913b35966836fdebeab07fd41602e743bfb298dfdbc620","license":"CC-BY-4.0","p21_id_equivalent":null,"fetched_at":null,"scope":{"classes":"ALL","domains":[],"exclude_domains":[]},"check_tree":{"narrative":"","condition_success":"","condition_failure":"Numeric variable with a suffix of TM, excluding ARELTM and variables with a suffix of DTM"}}
{"id":"420","authority":"CDISC","standard":"ADaM-IG","standard_ver":"1.2,1.3","severity":"Medium","message":"On a given record, TRxxPGy is populated and TRxxPGyN is not populated","source_document":"CDISC ADaM Conformance Rules v5.0","source_url":"https://www.cdisc.org/standards/foundational/adam/adam-conformance-rules-v5-0","source_version":"1","content_hash":"96281b06dc2cac97672bff1e5a83fbab52ff2ba16aa22742089232d94577ec1f","license":"CC-BY-4.0","p21_id_equivalent":null,"fetched_at":null,"scope":{"classes":"SUBJECT LEVEL ANALYSIS DATASET","domains":[],"exclude_domains":[]},"check_tree":{"expand":"xx,y","all":[{"name":"TRxxPGy","operator":"non_empty"},{"name":"TRxxPGyN","operator":"empty"}]}}
{"id":"421","authority":"CDISC","standard":"ADaM-IG","standard_ver":"1.2,1.3","severity":"Medium","message":"On a given record, TRxxAGyN is populated and TRxxAGy is not populated","source_document":"CDISC ADaM Conformance Rules v5.0","source_url":"https://www.cdisc.org/standards/foundational/adam/adam-conformance-rules-v5-0","source_version":"1","content_hash":"f777e5e5e0a6de029d28ada0157385c8aa4425e9f6c953532b05ab7a5bf47af9","license":"CC-BY-4.0","p21_id_equivalent":null,"fetched_at":null,"scope":{"classes":"SUBJECT LEVEL ANALYSIS DATASET","domains":[],"exclude_domains":[]},"check_tree":{"expand":"xx,y","all":[{"name":"TRxxAGyN","operator":"non_empty"},{"name":"TRxxAGy","operator":"empty"}]}}
{"id":"422","authority":"CDISC","standard":"ADaM-IG","standard_ver":"1.2,1.3","severity":"Medium","message":"On a given record, TRxxAGy is populated and TRxxAGyN is not populated","source_document":"CDISC ADaM Conformance Rules v5.0","source_url":"https://www.cdisc.org/standards/foundational/adam/adam-conformance-rules-v5-0","source_version":"1","content_hash":"0f55dd8c32cf3e745bf6aafc2d5dc53fc1a14251dc0ed055bac7e998029f46ae","license":"CC-BY-4.0","p21_id_equivalent":null,"fetched_at":null,"scope":{"classes":"SUBJECT LEVEL ANALYSIS DATASET","domains":[],"exclude_domains":[]},"check_tree":{"expand":"xx,y","all":[{"name":"TRxxAGy","operator":"non_empty"},{"name":"TRxxAGyN","operator":"empty"}]}}
{"id":"423","authority":"CDISC","standard":"ADaM-IG","standard_ver":"1.2,1.3","severity":"Medium","message":"On a given record, TRTPGyN is populated and TRTPGy is not populated","source_document":"CDISC ADaM Conformance Rules v5.0","source_url":"https://www.cdisc.org/standards/foundational/adam/adam-conformance-rules-v5-0","source_version":"1","content_hash":"ef5ab9e80b5d4f06bfc0320493233ed849d6de29065e7a463f989a260a2579cc","license":"CC-BY-4.0","p21_id_equivalent":null,"fetched_at":null,"scope":{"classes":["BASIC DATA STRUCTURE","OCCURRENCE DATA STRUCTURE"],"domains":[],"exclude_domains":[]},"check_tree":{"expand":"y","all":[{"name":"TRTPGyN","operator":"non_empty"},{"name":"TRTPGy","operator":"empty"}]}}
{"id":"424","authority":"CDISC","standard":"ADaM-IG","standard_ver":"1.2,1.3","severity":"Medium","message":"On a given record, TRTPGy is populated and TRTPGyN is not populated","source_document":"CDISC ADaM Conformance Rules v5.0","source_url":"https://www.cdisc.org/standards/foundational/adam/adam-conformance-rules-v5-0","source_version":"1","content_hash":"913c9b995cf675b8f330c9192f2caeb4b08cfa90cf466b267152f5c69f23e04f","license":"CC-BY-4.0","p21_id_equivalent":null,"fetched_at":null,"scope":{"classes":["BASIC DATA STRUCTURE","OCCURRENCE DATA STRUCTURE"],"domains":[],"exclude_domains":[]},"check_tree":{"expand":"y","all":[{"name":"TRTPGy","operator":"non_empty"},{"name":"TRTPGyN","operator":"empty"}]}}
{"id":"425","authority":"CDISC","standard":"ADaM-IG","standard_ver":"1.2,1.3","severity":"Medium","message":"On a given record, TRTAGy is populated and TRTAGyN is not populated","source_document":"CDISC ADaM Conformance Rules v5.0","source_url":"https://www.cdisc.org/standards/foundational/adam/adam-conformance-rules-v5-0","source_version":"1","content_hash":"1c41215f8298ba9ebbdca007e101199792f2d0b5b271684c7f4726ee49f1d69b","license":"CC-BY-4.0","p21_id_equivalent":null,"fetched_at":null,"scope":{"classes":["BASIC DATA STRUCTURE","OCCURRENCE DATA STRUCTURE"],"domains":[],"exclude_domains":[]},"check_tree":{"expand":"y","all":[{"name":"TRTAGy","operator":"non_empty"},{"name":"TRTAGyN","operator":"empty"}]}}
{"id":"426","authority":"CDISC","standard":"ADaM-IG","standard_ver":"1.2,1.3","severity":"Medium","message":"On a given record, TRTAGyN is populated and TRTAGy is not populated","source_document":"CDISC ADaM Conformance Rules v5.0","source_url":"https://www.cdisc.org/standards/foundational/adam/adam-conformance-rules-v5-0","source_version":"1","content_hash":"374568017aa61533c7f9ca739103cf650529f9e4ea316adeb51165783aa83d42","license":"CC-BY-4.0","p21_id_equivalent":null,"fetched_at":null,"scope":{"classes":["BASIC DATA STRUCTURE","OCCURRENCE DATA STRUCTURE"],"domains":[],"exclude_domains":[]},"check_tree":{"expand":"y","all":[{"name":"TRTAGyN","operator":"non_empty"},{"name":"TRTAGy","operator":"empty"}]}}
{"id":"427","authority":"CDISC","standard":"ADaM-IG","standard_ver":"1.2,1.3","severity":"Medium","message":"On a given record, TRTxxA is populated and TRTxxAN is not populated","source_document":"CDISC ADaM Conformance Rules v5.0","source_url":"https://www.cdisc.org/standards/foundational/adam/adam-conformance-rules-v5-0","source_version":"1","content_hash":"f7f8caf273f45c64eff16b2317ed7c8b6a6949889a79c2ee06e99a9dddc48a91","license":"CC-BY-4.0","p21_id_equivalent":null,"fetched_at":null,"scope":{"classes":"SUBJECT LEVEL ANALYSIS DATASET","domains":[],"exclude_domains":[]},"check_tree":{"expand":"xx","all":[{"name":"TRTxxA","operator":"non_empty"},{"name":"TRTxxAN","operator":"empty"}]}}
{"id":"428","authority":"CDISC","standard":"ADaM-IG","standard_ver":"1.2,1.3","severity":"Medium","message":"On a given record, TRTxxAN is populated and TRTxxA is not populated","source_document":"CDISC ADaM Conformance Rules v5.0","source_url":"https://www.cdisc.org/standards/foundational/adam/adam-conformance-rules-v5-0","source_version":"1","content_hash":"69c0ba1311e5f5dbbe9fbec486270e79f4c3cf23dc5931df32765c64a6e7f01a","license":"CC-BY-4.0","p21_id_equivalent":null,"fetched_at":null,"scope":{"classes":"SUBJECT LEVEL ANALYSIS DATASET","domains":[],"exclude_domains":[]},"check_tree":{"expand":"xx","all":[{"name":"TRTxxAN","operator":"non_empty"},{"name":"TRTxxA","operator":"empty"}]}}
{"id":"429","authority":"CDISC","standard":"ADaM-IG","standard_ver":"1.2,1.3","severity":"Medium","message":"On a given record, APERIOD is populated and APERIODC is not populated","source_document":"CDISC ADaM Conformance Rules v5.0","source_url":"https://www.cdisc.org/standards/foundational/adam/adam-conformance-rules-v5-0","source_version":"1","content_hash":"ae66a066120906ae3bb2490d0f4d87f1c88448e26db17d13fbf12ec7edfe054b","license":"CC-BY-4.0","p21_id_equivalent":null,"fetched_at":null,"scope":{"classes":["BASIC DATA STRUCTURE","OCCURRENCE DATA STRUCTURE"],"domains":[],"exclude_domains":[]},"check_tree":{"all":[{"name":"APERIOD","operator":"non_empty"},{"name":"APERIODC","operator":"empty"}]}}
{"id":"43","authority":"CDISC","standard":"ADaM-IG","standard_ver":"1.0,1.1,1.2,1.3","severity":"Medium","message":"A numeric variable with a suffix of DTM does not have a datetime format","source_document":"CDISC ADaM Conformance Rules v5.0","source_url":"https://www.cdisc.org/standards/foundational/adam/adam-conformance-rules-v5-0","source_version":"1","content_hash":"618974341c5c8b27f7a32651a1cbe9c82f46ffc1e28adfac0f2f94573dae0053","license":"CC-BY-4.0","p21_id_equivalent":null,"fetched_at":null,"scope":{"classes":"ALL","domains":[],"exclude_domains":[]},"check_tree":{"narrative":"","condition_success":"","condition_failure":"Numeric variable with a suffix of DTM"}}
{"id":"430","authority":"CDISC","standard":"ADaM-IG","standard_ver":"1.2,1.3","severity":"Medium","message":"On a given record, APERIODC is populated and APERIOD is not populated","source_document":"CDISC ADaM Conformance Rules v5.0","source_url":"https://www.cdisc.org/standards/foundational/adam/adam-conformance-rules-v5-0","source_version":"1","content_hash":"26f4faf2e5c7cebfcf652f85499ec083c85e1333d56a1b7df0fcea69a9db02e9","license":"CC-BY-4.0","p21_id_equivalent":null,"fetched_at":null,"scope":{"classes":["BASIC DATA STRUCTURE","OCCURRENCE DATA STRUCTURE"],"domains":[],"exclude_domains":[]},"check_tree":{"all":[{"name":"APERIODC","operator":"non_empty"},{"name":"APERIOD","operator":"empty"}]}}
{"id":"431","authority":"CDISC","standard":"ADaM-IG","standard_ver":"1.2,1.3","severity":"Medium","message":"On a given record, APHASE is populated and APHASEN is not populated","source_document":"CDISC ADaM Conformance Rules v5.0","source_url":"https://www.cdisc.org/standards/foundational/adam/adam-conformance-rules-v5-0","source_version":"1","content_hash":"243a5b70eb78599a78f64e5083abdcf12541aa178ab1b9f24db87f48817f3385","license":"CC-BY-4.0","p21_id_equivalent":null,"fetched_at":null,"scope":{"classes":["BASIC DATA STRUCTURE","OCCURRENCE DATA STRUCTURE"],"domains":[],"exclude_domains":[]},"check_tree":{"all":[{"name":"APHASE","operator":"non_empty"},{"name":"APHASEN","operator":"empty"}]}}
