Authorities:
  - Organization: CDISC
    Standards:
      - Name: SDTMIG
        References:
          - Citations:
              - Cited_Guidance: Note that --STDTC should not be used in the Findings
                  general observation class and is therefore blank in the following
                  table.
                Document: IG v3.4
                Section: 4.4.8
            Origin: SDTM and SDTMIG Conformance Rules
            Rule_Identifier:
              Id: CG0467
              Version: '1'
            Version: '2.0'
        Version: '3.4'
      - Name: SDTMIG
        References:
          - Citations:
              - Cited_Guidance: IG v3.2[4.1.1.3][Additional Timing variables can be
                  added as needed to a standard domain model based on the three general
                  observation classes except where discouraged in Assumption 4.1.4.8
                  and specific domain assumptions. Timing variables can be added to
                  special-purpose domains only where specified in the SDTMIG domain
                  model assumptions. Timing variables cannot be added to SUPPQUAL
                  datasets or to RELREC]|IG v3.2[4.1.1.8][AEENTPT = final subject
                  contact date, e.g., "2006-11-02"Date and Time Reported in a Domain
                  Based on Findings. When the date/time of collection is reported
                  in any domain, the date/time should go into the --DTC field (e.g.,
                  EGDTC for Date/Time of ECG). For any domain based on the Findings
                  general observation class, such as lab tests which are based on
                  a specimen, the collection date is likely to be tied to when the
                  specimen or source of the finding was captured, not necessarily
                  when the data was recorded. In order to ensure that the critical
                  timing information is always represented in the same variable, the
                  --DTC variable is used to represent the time of specimen collection.
                  For example, in the LB domain the LBDTC variable would be used for
                  all single-point blood collections or spot urine collections. For
                  timed lab collections (e.g., 24-hour urine collections) the LBDTC
                  variable would be used for the start date/time of the collection
                  and LBENDTC for the end date/time of the collection. This approach
                  will allow the single-point and interval collections to use the
                  same date/time variables consistently across all datasets for the
                  Findings general observation class. The table below illustrates
                  the proper use of these variables. Note that --STDTC is not used
                  for collection dates over an interval, so is blank in the following
                  table.]
                Document: IG v3.2
                Section: IG v3.2[4.1.1.3]|IG v3.2[4.1.1.8]
            Origin: SDTM and SDTMIG Conformance Rules
            Rule_Identifier:
              Id: CG0467
              Version: '1'
            Version: '2.0'
        Version: '3.2'
      - Name: SDTMIG
        References:
          - Citations:
              - Cited_Guidance: IG v3.3[4.1.3][Additional Timing variables can be
                  added as needed to a standard domain model based on the three general
                  observation classes except where discouraged in Assumption 4.4.8
                  and specific domain assumptions. Timing variables can be added to
                  special-purpose domains only where specified in the SDTMIG domain
                  model assumptions. Timing variables cannot be added to SUPPQUAL
                  datasets or to RELREC]|IG v3.3[4.4.8][When the date/time of collection
                  is reported in any domain, the date/time should go into the --DTC
                  field (e.g., EGDTC for Date/Time of ECG). For any domain based on
                  the Findings general observation class, such as lab tests which
                  are based on a specimen, the collection date is likely to be tied
                  to when the specimen or source of the finding was captured, not
                  necessarily when the data was recorded. In order to ensure that
                  the critical timing information is always represented in the same
                  variable, the --DTC variable is used to represent the time of specimen
                  collection. For example, in the LB domain the LBDTC variable would
                  be used for all single-point blood collections or spot urine collections.
                  For timed lab collections (e.g., 24-hour urine collections) the
                  LBDTC variable would be used for the start date/time of the collection
                  and LBENDTC for the end date/time of the collection. This approach
                  will allow the single-point and interval collections to use the
                  same date/time variables consistently across all datasets for the
                  Findings general observation class. The table below illustrates
                  the proper use of these variables. Note that --STDTC is not used
                  for collection dates over an interval, so is blank in the following
                  table.]
                Document: IG v3.3
                Section: IG v3.3[4.1.3]|IG v3.3[4.4.8]
            Origin: SDTM and SDTMIG Conformance Rules
            Rule_Identifier:
              Id: CG0467
              Version: '1'
            Version: '2.0'
        Version: '3.3'
      - Name: SENDIG
        References:
          - Citations:
              - Cited_Guidance: When the date/time of collection is reported in any
                  domain, the date/time should go into the --DTC field...In order
                  to ensure that the critical timing information is always represented
                  in the same variable, the --DTC variable is used to represent the
                  time of specimen collection...Note that --STDTC is not used for
                  collection dates over an interval...
                Document: IG v3.0
                Section: 4.4.6
            Origin: SEND Conformance Rules
            Rule_Identifier:
              Id: SEND78
              Version: '1'
            Version: '5.0'
        Version: '3.0'
      - Name: SENDIG
        References:
          - Citations:
              - Cited_Guidance: When the date/time of collection is reported in any
                  domain, the date/time should go into the --DTC field...In order
                  to ensure that the critical timing information is always represented
                  in the same variable, the --DTC variable is used to represent the
                  time of specimen collection...Note that --STDTC is not used for
                  collection dates over an interval...
                Document: IG v3.1
                Section: 4.4.6
            Origin: SEND Conformance Rules
            Rule_Identifier:
              Id: SEND78
              Version: '1'
            Version: '5.0'
        Version: '3.1'
      - Name: SENDIG
        References:
          - Citations:
              - Cited_Guidance: When the date/time of collection is reported in any
                  domain, the date/time should go into the --DTC field...In order
                  to ensure that the critical timing information is always represented
                  in the same variable, the --DTC variable is used to represent the
                  time of specimen collection...Note that --STDTC is not used for
                  collection dates over an interval...
                Document: IG v3.1.1
                Section: 4.4.6
            Origin: SEND Conformance Rules
            Rule_Identifier:
              Id: SEND78
              Version: '1'
            Version: '5.0'
        Version: 3.1.1
      - Name: SENDIG-DART
        References:
          - Citations:
              - Cited_Guidance: When the date/time of collection is reported in any
                  domain, the date/time should go into the --DTC field...In order
                  to ensure that the critical timing information is always represented
                  in the same variable, the --DTC variable is used to represent the
                  time of specimen collection...Note that --STDTC is not used for
                  collection dates over an interval...
                Document: IG v3.1
                Section: 4.4.6
            Origin: SEND Conformance Rules
            Rule_Identifier:
              Id: SEND78
              Version: '1'
            Version: '5.0'
        Version: '1.1'
      - Name: SENDIG-DART
        References:
          - Citations:
              - Cited_Guidance: When the date/time of collection is reported in any
                  domain, the date/time should go into the --DTC field...In order
                  to ensure that the critical timing information is always represented
                  in the same variable, the --DTC variable is used to represent the
                  time of specimen collection...Note that --STDTC is not used for
                  collection dates over an interval...
                Document: IG v3.1.1
                Section: 4.4.6
            Origin: SEND Conformance Rules
            Rule_Identifier:
              Id: SEND78
              Version: '1'
            Version: '5.0'
        Version: '1.2'
      - Name: SENDIG-GENETOX
        References:
          - Citations:
              - Cited_Guidance: When the date/time of collection is reported in any
                  domain, the date/time should go into the --DTC field...In order
                  to ensure that the critical timing information is always represented
                  in the same variable, the --DTC variable is used to represent the
                  time of specimen collection...Note that --STDTC is not used for
                  collection dates over an interval...
                Document: IG v3.1.1
                Section: 4.4.6
            Origin: SEND Conformance Rules
            Rule_Identifier:
              Id: SEND78
              Version: '1'
            Version: '5.0'
        Version: '1.0'
      - Name: TIG
        References:
          - Citations:
              - Cited_Guidance: Not in Findings class domains | Select variables for
                  the domain from the SDTM. Selection of variables must align with
                  SDTM Usage Restrictions.
                Document: SDTM v2.1|TIG v1.0
                Item: Specification|--STDTC
                Section: Section 3.1.5 - Timing Variables for All Classes | 2.8.2
                  How Extend Domains | 2.8.3 How to Create New Specifications
            Origin: TIG Conformance Rules
            Rule_Identifier:
              Id: TIG0597
              Version: '1'
            Version: '1.0'
        Substandard: SDTM
        Version: '1.0'
      - Name: TIG
        References:
          - Citations:
              - Cited_Guidance: When the date/time of collection is reported in any
                  domain, the date/time should go into the --DTC field...In order
                  to ensure that the critical timing information is always represented
                  in the same variable, the --DTC variable is used to represent the
                  time of specimen collection...Note that --STDTC is not used for
                  collection dates over an interval.
                Document: TIG v1.0
                Item: text
                Section: 2.8.7.5
            Origin: TIG Conformance Rules
            Rule_Identifier:
              Id: TIG0276
              Version: '1'
            Version: '1.0'
        Substandard: SEND
        Version: '1.0'
Check:
  all:
    - name: --STDTC
      operator: exists
Core:
  Id: CORE-000207
  Status: Published
  Version: '1'
Description: Trigger error when --STDTC is present in a Findings general observation
  class
Executability: Fully Executable
Outcome:
  Message: --STDTC is present in a Findings general observation class
  Output_Variables:
    - --STDTC
Rule_Type: Record Data
Scope:
  Classes:
    Include:
      - FINDINGS
  Domains:
    Include:
      - ALL
  Use_Case: INDH, PROD, NONCLIN
Sensitivity: Dataset
herald:
  source: CDISC Library API
  catalogs:
    - SDTMIG 3.2
    - SDTMIG 3.3
  fetched: '2026-04-03T12:15:16Z'

