id: CG0222
authority: CDISC
standard: SDTM-IG
standard_versions:
- '3.2'
- '3.3'
- '3.4'
severity: Medium
scope:
  classes: ALL
  domains: ALL
  exclude_domains: []
variable: --ENDY
check:
  operator: study_day_mismatch
  name: --ENDY
  reference_dataset: DM
  reference_column: RFSTDTC
  target_date_column: --ENDTC
  key: USUBJID
outcome:
  message: --ENDY is properly calculated per study day algorithm
  severity: Medium
provenance:
  source_document: CDISC SDTM and SDTMIG Conformance Rules v2.0
  source_document_section: IG v3.2 4.1.4
  source_url: https://www.cdisc.org/standards/foundational/sdtmig/sdtm-and-sdtmig-conformance-rules-v2-0
  cited_guidance: '[The permissible Study Day variables (--DY, --STDY, and --ENDY)
    describe the relative day of the observation starting with the reference date
    as Day 1. They are determined by comparing the date portion of the respective
    date/time variables (--DTC, --STDTC, and --ENDTC) to the date portion of the Subject
    Reference Start Date (RFSTDTC from the Demographics domain).][All Study Day values
    are integers. Thus, to calculate Study Day: --DY = (date portion of --DTC) - (date
    portion of RFSTDTC) + 1 if --DTC is on or after RFSTDTC, --DY = (date portion
    of --DTC) - (date portion of RFSTDTC) if --DTC precedes RFSTDTC. This algorithm
    should be used across all domains.]'
  source_version: '1'
  license: CC-BY-4.0
  executability: predicate
