id: CG0218
authority: CDISC
standard: SDTM-IG
standard_versions:
- '3.2'
- '3.3'
- '3.4'
severity: Medium
scope:
  classes: SPC
  domains: SV
  exclude_domains: []
variable: EPOCH
check:
  narrative: EPOCH = SE.EPOCH
  condition: EPOCH present in dataset and SESTDTC <= SVSTDTC and SVSTDTC <= SEENDTC
outcome:
  message: EPOCH = SE.EPOCH
  severity: Medium
provenance:
  source_document: CDISC SDTM and SDTMIG Conformance Rules v2.0
  source_document_section: IG v3.2 5 SV
  source_url: https://www.cdisc.org/standards/foundational/sdtmig/sdtm-and-sdtmig-conformance-rules-v2-0
  cited_guidance: If TAETORD and/or EPOCH are added, then the values must be those
    at the start of the visit.It would be inappropriate to add the variables that
    support time points (--TPT, --TPTNUM, --ELTM, --TPTREF, and --RFTDTC), since the
    topic of this dataset is visits.
  source_version: '1'
  license: CC-BY-4.0
  executability: narrative

