id: CG0528
authority: CDISC
standard: SDTM-IG
standard_versions:
- '3.3'
- '3.4'
severity: Medium
scope:
  classes: SPC
  domains: DM
  exclude_domains: []
variable: RDOMAIN
check:
  all:
  - name: RDOMAIN
    operator: equal_to_case_insensitive
    value: DM
  - name: QNAM
    operator: matches_regex
    value: (ENRFL|SAFFL|EFFFL|ITTFL|PPROTFL|COMPLFL|COMPLT|FULLSET|ITT|PPROT|SAFETY)
outcome:
  message: ADSL Population flags not in SUPPDM
  severity: Medium
provenance:
  source_document: CDISC SDTM and SDTMIG Conformance Rules v2.0
  source_document_section: IG v3.3 5.2
  source_url: https://www.cdisc.org/standards/foundational/sdtmig/sdtm-and-sdtmig-conformance-rules-v2-0
  cited_guidance: The standard Supplemental Qualifiers included in previous versions
    of the SDTMIG (COMPLT; FULLSET; ITT; PPROT; and SAFETY) should not be used. Note
    that the ADaM subject-level analysis dataset (ADSL) specifies standard variable
    names for the most common populations and requires the inclusion of these flags
    when necessary for analysis; consult the ADaM Implementation Guide for more information
    about these variables.
  source_version: '1'
  license: CC-BY-4.0
  executability: predicate
  core_crosswalk: CORE-000211
