"rule_id","bucket","authority","standard","standard_versions","severity","executability","pattern","status","core_id","cg_ids","tig_ids","fb_ids","p21_id_equivalent","p21_primitive","overlap_type","message","check_tree_preview","converted_at","notes"
"CG0001","sdtm-ig-v2.0","CDISC","SDTM-IG","3.2;3.3;3.4","Medium","predicate","domain-code-in-ct","predicate","CORE-000929",NA,"TIG0289; TIG0090","",NA,NA,"true-duplicate","DOMAIN = valid Domain Code published by CDISC","operator: value_in_codelist name: DOMAIN codelist: DOMAIN extensible: true package: sdtm","2026-04-24T14:00:41Z",NA
"CG0002","sdtm-ig-v2.0","CDISC","SDTM-IG","3.2;3.3;3.4","Medium","narrative",NA,"narrative",NA,NA,NA,NA,NA,NA,NA,"--DUR collected and not derived",NA,NA,NA
"CG0006","sdtm-ig-v2.0","CDISC","SDTM-IG","3.2;3.3;3.4","Medium","predicate",NA,"predicate","CORE-000529",NA,"TIG0291; TIG0274; TIG0275","FB1603",NA,NA,"core-is-better","--DY calculated as per the study day algorithm as a non-zero integer value",NA,"2026-04-24T22:05:17Z",NA
"CG0007","sdtm-ig-v2.0","CDISC","SDTM-IG","3.2;3.3;3.4","Medium","predicate",NA,"predicate","CORE-000354",NA,"TIG0292","",NA,NA,"core-is-better","--DY = null",NA,NA,NA
"CG0008","sdtm-ig-v2.0","CDISC","SDTM-IG","3.2;3.3;3.4","Medium","predicate","value-conditional-null-empty","predicate","CORE-000028",NA,"TIG0293","",NA,NA,"true-duplicate","--ELTM = null","empty(--TPTREF) & non_empty(--ELTM)","2026-04-21T13:51:48Z",NA
"CG0009","sdtm-ig-v2.0","CDISC","SDTM-IG","3.2;3.3;3.4","Medium","predicate","cross-lookup","predicate","CORE-000271",NA,"TIG0294","",NA,"lookup","true-duplicate","EPOCH in TA.EPOCH","is_not_contained_by(EPOCH,TA.EPOCH)","2026-04-21T12:20:10Z",NA
"CG0010","sdtm-ig-v2.0","CDISC","SDTM-IG","3.2;3.3;3.4","Medium","predicate",NA,"predicate","CORE-001081",NA,"","",NA,NA,"core-is-better","Metadata attribute of Variable Role = IG Role for domains in IG, Metadata attribute of Variable Role = Model Role for custom domains",NA,NA,NA
"CG0011","sdtm-ig-v2.0","CDISC","SDTM-IG","3.2;3.3;3.4","Medium","narrative",NA,"narrative",NA,NA,NA,NA,NA,NA,NA,"Variable Format = SDTM-specified controlled terminology and format guidelines for variables, when provided",NA,NA,NA
"CG0012","sdtm-ig-v2.0","CDISC","SDTM-IG","3.2;3.3;3.4","Medium","predicate",NA,"predicate","CORE-001082",NA,"","",NA,NA,"core-is-better","Variable Type = IG Type for domains in IG, Type = Model Type for custom domains",NA,NA,NA
"CG0013","sdtm-ig-v2.0","CDISC","SDTM-IG","3.2;3.3;3.4","Medium","predicate",NA,"predicate","CORE-000550",NA,"TIG0298","",NA,NA,"core-is-better","Variable = Model List of Allowed Variables for Observation Class",NA,"2026-04-24T22:05:17Z",NA
"CG0014","sdtm-ig-v2.0","CDISC","SDTM-IG","3.2;3.3;3.4","Medium","predicate",NA,"predicate","CORE-000355",NA,"TIG0299; TIG0057","",NA,NA,"core-is-better","Variable present in dataset and ^= null",NA,"2026-04-24T22:05:17Z",NA
"CG0015","sdtm-ig-v2.0","CDISC","SDTM-IG","3.2;3.3;3.4","Medium","narrative",NA,"narrative",NA,NA,NA,NA,NA,NA,NA,"Variable present in dataset and ^= null",NA,NA,NA
"CG0016","sdtm-ig-v2.0","CDISC","SDTM-IG","3.2;3.3;3.4","Medium","predicate",NA,"predicate","CORE-000334",NA,"TIG0301; TIG0065","",NA,NA,"core-is-better","Variable present in dataset",NA,"2026-04-24T22:05:17Z",NA
"CG0017","sdtm-ig-v2.0","CDISC","SDTM-IG","3.2;3.3;3.4","Medium","predicate","split-dataset-name-length","predicate","CORE-000510",NA,"","",NA,NA,"true-duplicate","Split dataset names length > 2 and <= 4","operator: dataset_name_length_not_in_range min_len: 3 max_len: 4","2026-04-24T14:00:38Z",NA
"CG0018","sdtm-ig-v2.0","CDISC","SDTM-IG","3.2;3.3;3.4","Medium","predicate","split-dataset-name-length","predicate","CORE-000357",NA,"TIG0303","",NA,NA,"true-duplicate","Split dataset names length <= 8","operator: dataset_name_length_not_in_range min_len: ~ max_len: 8","2026-04-24T14:00:38Z",NA
"CG0019","sdtm-ig-v2.0","CDISC","SDTM-IG","3.2;3.3;3.4","Medium","predicate","define-xml-key-uniqueness","predicate",NA,NA,NA,NA,NA,NA,NA,"Each record is unique per sponsor defined key variables as documented in the define.xml","operator: key_not_unique_per_define","2026-04-24T00:00:00Z",NA
"CG0020","sdtm-ig-v2.0","CDISC","SDTM-IG","3.2;3.3;3.4","Medium","narrative",NA,"narrative",NA,NA,NA,NA,NA,NA,NA,"Value in associated codelist or 'MULTIPLE'",NA,NA,"Q27: stays narrative; requires variable-to-codelist map not yet built"
"CG0021","sdtm-ig-v2.0","CDISC","SDTM-IG","3.2;3.3;3.4","Medium","narrative",NA,"narrative",NA,NA,NA,NA,NA,NA,NA,"Value in associated codelist or 'OTHER'",NA,NA,"Q27: stays narrative; requires variable-to-codelist map not yet built"
"CG0022","sdtm-ig-v2.0","CDISC","SDTM-IG","3.2;3.3;3.4","Medium","predicate","var-linked-across-submission","predicate","CORE-000358",NA,"TIG0306","",NA,NA,"true-duplicate","--LNKGRP present in another domain","all: - operator: exists name: %var% - not: operator: var_present_in_any_other_dataset name: %var%","2026-04-24T14:28:29Z",NA
"CG0024","sdtm-ig-v2.0","CDISC","SDTM-IG","3.2;3.3;3.4","Medium","predicate","var-linked-across-submission","predicate","CORE-000571",NA,"TIG0307","",NA,NA,"true-duplicate","--LNKID present in another domain","all: - operator: exists name: %var% - not: operator: var_present_in_any_other_dataset name: %var%","2026-04-24T14:28:29Z",NA
"CG0026","sdtm-ig-v2.0","CDISC","SDTM-IG","3.2;3.3;3.4","Medium","predicate","value-conditional-null-empty","predicate","CORE-000248",NA,"TIG0265; TIG0308","FB3702",NA,NA,"true-duplicate","--RFTDTC = null","empty(--TPTREF) & non_empty(--RFTDTC)","2026-04-21T13:51:48Z",NA
"CG0027","sdtm-ig-v2.0","CDISC","SDTM-IG","3.2;3.3;3.4","Medium","predicate","value-conditional-not-equal-column","predicate","CORE-000237",NA,"TIG0309","",NA,NA,"true-duplicate","--SCAT ^= --CAT","non_empty(--SCAT) & equal_to(--SCAT,--CAT,FALSE)","2026-04-21T15:03:22Z",NA
"CG0028","sdtm-ig-v2.0","CDISC","SDTM-IG","3.2;3.3;3.4","Medium","predicate",NA,"predicate","CORE-000544",NA,"","",NA,NA,"core-is-better","--SEQ is a unique number per USUBJID per domain, or a unique number per POOLID per domain, including when the domain is split into multiple files",NA,NA,NA
"CG0029","sdtm-ig-v2.0","CDISC","SDTM-IG","3.2;3.3;3.4","Medium","predicate","cross-lookup","predicate","CORE-000201",NA,"TIG0311; TIG0046","",NA,"lookup","true-duplicate","USUBJID in DM.USUBJID","is_not_contained_by(USUBJID,DM.USUBJID)","2026-04-21T12:20:10Z",NA
"CG0031","sdtm-ig-v2.0","CDISC","SDTM-IG","3.2;3.3;3.4","Medium","predicate","cross-lookup","predicate","CORE-000269",NA,"TIG0312","",NA,"lookup","true-duplicate","VISIT in TV.VISIT","is_not_contained_by(VISIT,TV.VISIT)","2026-04-21T12:20:10Z",NA
"CG0032","sdtm-ig-v2.0","CDISC","SDTM-IG","3.2;3.3;3.4","Medium","predicate","value-equals-cross-dataset-col","predicate","CORE-000249",NA,"TIG0313","",NA,NA,"true-duplicate","VISITDY = TV.VISITDY","all: - operator: differs_by_key name: ""VISITDY"" reference_dataset: ""TV"" reference_column: ""VISITDY"" key: ""[STUDYID, VISITNUM]""","2026-04-24T09:20:55Z",NA
"CG0033","sdtm-ig-v2.0","CDISC","SDTM-IG","3.2;3.3;3.4","Medium","predicate","cross-lookup","predicate","CORE-000270",NA,"TIG0314","",NA,"lookup","true-duplicate","VISITNUM in TV.VISITNUM","is_not_contained_by(VISITNUM,TV.VISITNUM)","2026-04-21T12:20:10Z",NA
"CG0034","sdtm-ig-v2.0","CDISC","SDTM-IG","3.2;3.3;3.4","Medium","predicate","cross-lookup","predicate","CORE-000168",NA,"TIG0315","",NA,"lookup","true-duplicate","VISITNUM in SV.VISITNUM","is_not_contained_by(VISITNUM,SV.VISITNUM)","2026-04-21T12:20:10Z",NA
"CG0035","sdtm-ig-v2.0","CDISC","SDTM-IG","3.2;3.3;3.4","Medium","predicate","uniqueness-grouped","predicate","CORE-000361",NA,"TIG0316","FB0919",NA,NA,"true-duplicate","VISIT and VISITNUM have a one-to-one relationship","is_not_unique_relationship(VISIT,VISITNUM)","2026-04-21T16:25:34Z",NA
"CG0037","sdtm-ig-v2.0","CDISC","SDTM-IG","3.2;3.3;3.4","Medium","predicate","value-equal-column","predicate","CORE-000362",NA,"","",NA,NA,"true-duplicate","--SOCCD = --BDSYCD","operator: not_equal_to name: --SOCCD value: --BDSYCD value_is_literal: false","2026-04-24T16:36:11Z",NA
"CG0039","sdtm-ig-v2.0","CDISC","SDTM-IG","3.2;3.3;3.4","Medium","predicate","value-equal-column","predicate","CORE-000264",NA,"","",NA,NA,"true-duplicate","--BODSYS = --SOC","operator: not_equal_to name: --BODSYS value: --SOC value_is_literal: false","2026-04-24T16:36:11Z",NA
"CG0040","sdtm-ig-v2.0","CDISC","SDTM-IG","3.2;3.3;3.4","Medium","predicate","presence-forbidden","predicate","CORE-000012",NA,"TIG0319","",NA,"find_prohibited","true-duplicate","AEOCCUR not present in dataset","exists(AEOCCUR)","2026-04-21T10:48:15Z",NA
"CG0041","sdtm-ig-v2.0","CDISC","SDTM-IG","3.2;3.3;3.4","Medium","predicate","ae-severity-aeser-y","predicate","CORE-000022",NA,"TIG0320","",NA,NA,"true-duplicate","AESER = 'Y'","all: - any: - operator: equal_to name: AESCAN value: 'Y' - operator: equal_to name: AESCONG value: 'Y' - operator: equal_to name: AESDISAB value: 'Y' - operator: equal_to name: AESDTH value: 'Y' - operator: equal_to name: AESHOSP value: 'Y' - operator: equal_to name: AESLIFE value: 'Y' - operator: equal_to name: AESOD value: 'Y' - operator: equal_to name: AESMIE value: 'Y' - operator: not_equal_to name: AESER value: 'Y'","2026-04-24T04:28:19Z",NA
"CG0042","sdtm-ig-v2.0","CDISC","SDTM-IG","3.2;3.3;3.4","Medium","predicate","ae-severity-aeser-n","predicate","CORE-000266",NA,"TIG0321","",NA,NA,"true-duplicate","AESER = 'N'","all: - operator: not_equal_to name: AESCAN value: 'Y' - operator: not_equal_to name: AESCONG value: 'Y' - operator: not_equal_to name: AESDISAB value: 'Y' - operator: not_equal_to name: AESDTH value: 'Y' - operator: not_equal_to name: AESHOSP value: 'Y' - operator: not_equal_to name: AESLIFE value: 'Y' - operator: not_equal_to name: AESOD value: 'Y' - operator: not_equal_to name: AESER value: 'N'","2026-04-24T04:28:22Z",NA
"CG0043","sdtm-ig-v2.0","CDISC","SDTM-IG","3.2;3.3;3.4","Medium","predicate","ae-supp-aeosp-aesmie","predicate","CORE-000597",NA,"TIG0322","",NA,NA,"true-duplicate","AESMIE = 'Y'","all: - operator: subject_has_matching_row name: USUBJID reference_dataset: SUPPAE reference_column: QNAM expected_value: AESOSP - operator: not_equal_to name: AESMIE value: 'Y'","2026-04-24T04:29:44Z",NA
"CG0044","sdtm-ig-v2.0","CDISC","SDTM-IG","3.2;3.3;3.4","Medium","predicate","presence-forbidden","predicate","CORE-000013",NA,"TIG0323","",NA,"find_prohibited","true-duplicate","AESTAT not present in dataset","exists(AESTAT)","2026-04-21T10:48:15Z",NA
"CG0045","sdtm-ig-v2.0","CDISC","SDTM-IG","3.2;3.3;3.4","Medium","predicate","value-not-null","predicate","CORE-000106",NA,"TIG0324","",NA,"required","true-duplicate","--ENRTPT ^= null","empty(--ENRTPT)","2026-04-21T11:05:30Z",NA
"CG0046","sdtm-ig-v2.0","CDISC","SDTM-IG","3.2;3.3;3.4","Medium","predicate","value-not-null","predicate",NA,NA,NA,NA,NA,"required",NA,"--ENTPT ^= null","empty(--ENTPT)","2026-04-21T11:05:30Z",NA
"CG0047","sdtm-ig-v2.0","CDISC","SDTM-IG","3.2;3.3;3.4","Medium","predicate","value-not-null","predicate",NA,NA,NA,NA,NA,"required",NA,"--MODIFY ^= null","empty(--MODIFY)","2026-04-21T11:05:30Z",NA
"CG0049","sdtm-ig-v2.0","CDISC","SDTM-IG","3.2;3.3;3.4","Medium","predicate","uniqueness-grouped","predicate","CORE-000268",NA,"TIG0327","FB0909",NA,NA,"true-duplicate","--DECOD and --PTCD have a one-to-one relationship","is_not_unique_relationship(--DECOD,--PTCD)","2026-04-21T16:25:34Z",NA
"CG0050","sdtm-ig-v2.0","CDISC","SDTM-IG","3.2;3.3;3.4","Medium","predicate","value-not-null","predicate","CORE-000267",NA,"TIG0328","",NA,"required","true-duplicate","--DECOD ^= null","empty(--DECOD)","2026-04-21T11:05:30Z",NA
"CG0053","sdtm-ig-v2.0","CDISC","SDTM-IG","3.2;3.3;3.4","Medium","predicate","presence-forbidden","predicate","CORE-000030",NA,"TIG0329","",NA,"find_prohibited","true-duplicate","--REASND not present in dataset","exists(--REASND)","2026-04-21T10:48:15Z",NA
"CG0056","sdtm-ig-v2.0","CDISC","SDTM-IG","3.2;3.3;3.4","Medium","predicate","presence-forbidden","predicate","CORE-000081",NA,"TIG0330","",NA,"find_prohibited","true-duplicate","--STAT not present in dataset","exists(--STAT)","2026-04-21T10:48:15Z",NA
"CG0057","sdtm-ig-v2.0","CDISC","SDTM-IG","3.2;3.3;3.4","Medium","predicate","presence-pair","predicate","CORE-000084",NA,"TIG0331","",NA,NA,"true-duplicate","--ENRTPT present in dataset","exists(--ENTPT) & not_exists(--ENRTPT)","2026-04-21T14:45:10Z",NA
"CG0058","sdtm-ig-v2.0","CDISC","SDTM-IG","3.2;3.3;3.4","Medium","predicate","presence-pair","predicate","CORE-000171",NA,"TIG0332","",NA,NA,"true-duplicate","--ENTPT present in dataset","exists(--ENRTPT) & not_exists(--ENTPT)","2026-04-21T14:45:10Z",NA
"CG0059","sdtm-ig-v2.0","CDISC","SDTM-IG","3.2;3.3;3.4","Medium","predicate","value-not-null","predicate","CORE-000085",NA,"TIG0333","",NA,"required","true-duplicate","--STRTPT ^= null","empty(--STRTPT)","2026-04-21T11:05:30Z",NA
"CG0060","sdtm-ig-v2.0","CDISC","SDTM-IG","3.2;3.3;3.4","Medium","predicate","presence-pair","predicate","CORE-000261",NA,"TIG0334","",NA,NA,"true-duplicate","--STRTPT present in dataset","exists(--STTPT) & not_exists(--STRTPT)","2026-04-21T14:45:10Z",NA
"CG0061","sdtm-ig-v2.0","CDISC","SDTM-IG","3.2;3.3;3.4","Medium","predicate","value-not-null","predicate",NA,NA,NA,NA,NA,"required",NA,"--STTPT ^= null","empty(--STTPT)","2026-04-21T11:05:30Z",NA
"CG0062","sdtm-ig-v2.0","CDISC","SDTM-IG","3.2;3.3;3.4","Medium","predicate","presence-pair","predicate","CORE-000258",NA,"TIG0336","",NA,NA,"true-duplicate","--STTPT present in dataset","exists(--STRTPT) & not_exists(--STTPT)","2026-04-21T14:45:10Z",NA
"CG0063","sdtm-ig-v2.0","CDISC","SDTM-IG","3.2","Medium","predicate","value-not-null","predicate","CORE-000329",NA,"","",NA,"required","true-duplicate","EPOCH ^= null","empty(EPOCH)","2026-04-21T11:05:30Z",NA
"CG0065","sdtm-ig-v2.0","CDISC","SDTM-IG","3.2;3.3;3.4","Medium","predicate","value-conditional-literal-assert","predicate","CORE-000033",NA,"TIG0337","",NA,NA,"true-duplicate","DSDECOD = 'COMPLETED'","is_contained_by(DSTERM,COMPLETED) & not_equal_to(DSDECOD,COMPLETED)","2026-04-21T14:32:01Z",NA
"CG0066","sdtm-ig-v2.0","CDISC","SDTM-IG","3.2","Medium","predicate","value-conditional-equal-column","predicate","CORE-000322",NA,"","",NA,NA,"true-duplicate","DSTERM = DSDECOD","is_contained_by(DSCAT,PROTOCOL MILESTONE) & not_equal_to(DSTERM,DSDECOD,FALSE)","2026-04-21T13:42:52Z",NA
"CG0067","sdtm-ig-v2.0","CDISC","SDTM-IG","3.2;3.3;3.4","Medium","predicate","value-cross-dataset-eq-lit","predicate","CORE-000251",NA,"","FB0614",NA,NA,"true-duplicate","DSDECOD = 'DEATH'","all: - operator: subject_has_matching_row name: USUBJID reference_dataset: SS reference_column: SSSTRESC expected_value: 'DEAD' - operator: not_equal_to name: DSDECOD value: 'DEATH'","2026-04-24T04:13:09Z",NA
"CG0068","sdtm-ig-v2.0","CDISC","SDTM-IG","3.2;3.3;3.4","Medium","predicate","value-compare-subject-ordinal","predicate","CORE-000363",NA,"TIG0338","",NA,NA,"true-duplicate","For each subject, earliest DSSTDTC = DM.RFICDTC","non_empty(DSSTDTC) & less_than_by_key(DSSTDTC,DM,RFICDTC,USUBJID)","2026-04-21T16:07:06Z",NA
"CG0069","sdtm-ig-v2.0","CDISC","SDTM-IG","3.2;3.3;3.4","Medium","predicate","value-equals-cross-dataset-col","predicate","CORE-000034",NA,"TIG0339","",NA,NA,"true-duplicate","DSSTDTC = DM.DTHDTC","all: - operator: differs_by_key name: ""DSSTDTC"" reference_dataset: ""DM"" reference_column: ""DTHDTC"" key: ""USUBJID""","2026-04-24T09:20:55Z",NA
"CG0071","sdtm-ig-v2.0","CDISC","SDTM-IG","3.2;3.3;3.4","Medium","predicate","ds-dispevt-dsterm-populated","predicate",NA,NA,NA,NA,NA,NA,NA,"DSTERM = 'COMPLETED' or the reason for discontinuation","all: - operator: is_contained_by name: DSCAT value: - 'DISPOSITION EVENT' - operator: empty name: DSTERM","2026-04-24T04:30:08Z",NA
"CG0073","sdtm-ig-v2.0","CDISC","SDTM-IG","3.2","Medium","predicate","value-conditional-null-eq","predicate","CORE-000364",NA,"","",NA,NA,"true-duplicate","EPOCH = null","equal_to(DSCAT,PROTOCOL MILESTONE) & non_empty(EPOCH)","2026-04-21T13:51:48Z",NA
"CG0075","sdtm-ig-v2.0","CDISC","SDTM-IG","3.2;3.3;3.4","Medium","predicate","value-compare-subject-ordinal","predicate","CORE-000086",NA,"TIG0341","",NA,NA,"true-duplicate","DVSTDTC >= DM.RFICDTC","non_empty(DVSTDTC) & less_than_by_key(DVSTDTC,DM,RFICDTC,USUBJID)","2026-04-21T16:07:06Z",NA
"CG0076","sdtm-ig-v2.0","CDISC","SDTM-IG","3.2;3.3;3.4","Medium","narrative",NA,"narrative",NA,NA,NA,NA,NA,NA,NA,"Event is not derived",NA,NA,NA
"CG0077","sdtm-ig-v2.0","CDISC","SDTM-IG","3.2;3.3;3.4","Medium","predicate",NA,"predicate","CORE-000365",NA,"","",NA,NA,"core-is-better","MHCAT ^= the same value for all records",NA,"2026-04-24T22:05:17Z",NA
"CG0078","sdtm-ig-v2.0","CDISC","SDTM-IG","3.2;3.3;3.4","Medium","predicate",NA,"predicate","CORE-000250",NA,"TIG0344","",NA,NA,"core-is-better","MHENDTC < DM.RFSTDTC",NA,NA,NA
"CG0079","sdtm-ig-v2.0","CDISC","SDTM-IG","3.2;3.3;3.4","Medium","predicate","value-compare-subject-ordinal","predicate","CORE-000236",NA,"TIG0345","",NA,NA,"true-duplicate","MHSTDTC < DM.RFSTDTC","non_empty(MHSTDTC) & greater_than_by_key(MHSTDTC,DM,RFSTDTC,USUBJID)","2026-04-21T16:07:06Z",NA
"CG0081","sdtm-ig-v2.0","CDISC","SDTM-IG","3.2;3.3;3.4","Medium","predicate",NA,"predicate","CORE-000117",NA,"TIG0346","",NA,NA,"core-is-better","--STAT = 'NOT DONE'",NA,NA,NA
"CG0082","sdtm-ig-v2.0","CDISC","SDTM-IG","3.2;3.3;3.4","Medium","predicate","value-not-null","predicate","CORE-000024",NA,"TIG0347","",NA,"required","true-duplicate","--BDSYCD ^= null","empty(--BDSYCD)","2026-04-21T11:05:30Z",NA
"CG0083","sdtm-ig-v2.0","CDISC","SDTM-IG","3.2;3.3;3.4","Medium","predicate","uniqueness-grouped","predicate","CORE-000184",NA,"TIG0348","FB0910",NA,NA,"true-duplicate","--BDSYCD and --BODSYS have a one-to-one relationship","is_not_unique_relationship(--BODSYS,--BDSYCD)","2026-04-21T16:25:34Z",NA
"CG0084","sdtm-ig-v2.0","CDISC","SDTM-IG","3.2;3.3;3.4","Medium","predicate","presence-forbidden","predicate","CORE-000023",NA,"TIG0349","",NA,"find_prohibited","true-duplicate","--TOX not present in dataset","exists(--TOX)","2026-04-21T10:48:15Z",NA
"CG0085","sdtm-ig-v2.0","CDISC","SDTM-IG","3.2;3.3;3.4","Medium","predicate","value-in-set","predicate","CORE-000260",NA,"TIG0350","",NA,NA,"true-duplicate","--PRESP in ('Y', null)","is_not_contained_by(--PRESP,Y)","2026-04-21T16:25:34Z",NA
"CG0086","sdtm-ig-v2.0","CDISC","SDTM-IG","3.2;3.3;3.4","Medium","predicate","value-not-null","predicate","CORE-000018",NA,"TIG0351","",NA,"required","true-duplicate","--OCCUR ^= null","empty(--OCCUR)","2026-04-21T11:05:30Z",NA
"CG0087","sdtm-ig-v2.0","CDISC","SDTM-IG","3.2;3.3;3.4","Medium","predicate","value-conditional-null-empty","predicate","CORE-000014",NA,"TIG0352","",NA,NA,"true-duplicate","--OCCUR = null","empty(--PRESP) & non_empty(--OCCUR)","2026-04-21T15:52:59Z",NA
"CG0088","sdtm-ig-v2.0","CDISC","SDTM-IG","3.2;3.3;3.4","Medium","predicate","presence-forbidden","predicate","CORE-000015",NA,"TIG0353","",NA,"find_prohibited","true-duplicate","--OCCUR not present in dataset","exists(--OCCUR)","2026-04-21T10:48:15Z",NA
"CG0089","sdtm-ig-v2.0","CDISC","SDTM-IG","3.2;3.3;3.4","Medium","predicate","value-conditional-populated-eq-lit","predicate","CORE-000016",NA,"TIG0354","",NA,NA,"true-duplicate","--PRESP = 'Y'","non_empty(--OCCUR) & not_equal_to(--PRESP,Y)","2026-04-21T15:23:47Z",NA
"CG0090","sdtm-ig-v2.0","CDISC","SDTM-IG","3.2;3.3;3.4","Medium","predicate","presence-pair","predicate","CORE-000165",NA,"TIG0355","FB3701",NA,NA,"true-duplicate","--TPTREF present in dataset","exists(--RFTDTC) & not_exists(--TPTREF)","2026-04-21T14:45:10Z",NA
"CG0091","sdtm-ig-v2.0","CDISC","SDTM-IG","3.4","Medium","predicate","presence-pair","predicate","CORE-000166",NA,"TIG0356","",NA,NA,"true-duplicate","--TPT present in dataset","exists(--TPTNUM) & not_exists(--TPT)","2026-04-21T14:45:10Z",NA
"CG0092","sdtm-ig-v2.0","CDISC","SDTM-IG","3.2;3.3;3.4","Medium","predicate","presence-pair","predicate","CORE-000167",NA,"TIG0357","",NA,NA,"true-duplicate","--TPTREF present in dataset","exists(--ELTM) & not_exists(--TPTREF)","2026-04-21T14:45:10Z",NA
"CG0093","sdtm-ig-v2.0","CDISC","SDTM-IG","3.2;3.3;3.4","Medium","predicate","presence-forbidden","predicate","CORE-000080",NA,"TIG0358","",NA,"find_prohibited","true-duplicate","--TPTREF not present in dataset","exists(--TPTREF)","2026-04-21T10:48:15Z",NA
"CG0094","sdtm-ig-v2.0","CDISC","SDTM-IG","3.2;3.3;3.4","Medium","predicate","value-conditional-populated-eq-lit","predicate","CORE-000225",NA,"TIG0359","",NA,NA,"true-duplicate","--STAT = 'NOT DONE'","non_empty(--REASND) & not_equal_to(--STAT,NOT DONE)","2026-04-21T15:30:36Z",NA
"CG0095","sdtm-ig-v2.0","CDISC","SDTM-IG","3.2;3.3;3.4","Medium","predicate","presence-forbidden","predicate","CORE-000079",NA,"","",NA,"find_prohibited","true-duplicate","--LAT not present in dataset","exists(--LAT)","2026-04-21T10:48:15Z",NA
"CG0096","sdtm-ig-v2.0","CDISC","SDTM-IG","3.2;3.3;3.4","Medium","predicate","value-not-null","predicate",NA,NA,NA,NA,NA,"required",NA,"CMDECOD ^= null","empty(CMDECOD)","2026-04-21T11:05:30Z",NA
"CG0097","sdtm-ig-v2.0","CDISC","SDTM-IG","3.2;3.3;3.4","Medium","narrative",NA,"narrative",NA,NA,NA,NA,NA,NA,NA,"CMTRT = collected on CRF",NA,NA,NA
"CG0098","sdtm-ig-v2.0","CDISC","SDTM-IG","3.2;3.3;3.4","Medium","narrative",NA,"narrative",NA,NA,NA,NA,NA,NA,NA,"CMTRT = collected medication name only",NA,NA,NA
"CG0099","sdtm-ig-v2.0","CDISC","SDTM-IG","3.2;3.3;3.4","Medium","predicate","value-not-null","predicate",NA,NA,NA,NA,NA,"required",NA,"--MODIFY ^= null","empty(--MODIFY)","2026-04-21T11:05:30Z",NA
"CG0100","sdtm-ig-v2.0","CDISC","SDTM-IG","3.2;3.3;3.4","Medium","predicate",NA,"predicate","CORE-000137",NA,"TIG0365","",NA,NA,"core-is-better","ECDOSE > 0",NA,NA,NA
"CG0101","sdtm-ig-v2.0","CDISC","SDTM-IG","3.2;3.3;3.4","Medium","predicate",NA,"predicate","CORE-000004",NA,"TIG0366","",NA,NA,"core-is-better","ECDOSE = null or > 0",NA,NA,NA
"CG0102","sdtm-ig-v2.0","CDISC","SDTM-IG","3.2;3.3;3.4","Medium","predicate","value-conditional-literal-assert","predicate","CORE-000005",NA,"","",NA,NA,"true-duplicate","EXDOSE = 0","is_contained_by(EXTRT,PLACEBO) & not_equal_to(EXDOSE,0)","2026-04-21T15:52:59Z",NA
"CG0103","sdtm-ig-v2.0","CDISC","SDTM-IG","3.2;3.3;3.4","Medium","narrative",NA,"narrative",NA,NA,NA,NA,NA,NA,NA,"EXDOSU = protocol-specified unit",NA,NA,NA
"CG0104","sdtm-ig-v2.0","CDISC","SDTM-IG","3.2;3.3;3.4","Medium","narrative",NA,"narrative",NA,NA,NA,NA,NA,NA,NA,"EXTRT = protocol-specified treatment",NA,NA,NA
"CG0105","sdtm-ig-v2.0","CDISC","SDTM-IG","3.2;3.3;3.4","Medium","predicate","presence-forbidden","predicate","CORE-000291",NA,"TIG0370","",NA,"find_prohibited","true-duplicate","EXVAMT not present in dataset","exists(EXVAMT)","2026-04-21T10:48:15Z",NA
"CG0106","sdtm-ig-v2.0","CDISC","SDTM-IG","3.2;3.3;3.4","Medium","predicate","value-conditional-null-empty","predicate","CORE-000089",NA,"","",NA,NA,"true-duplicate","--VAMT = null","empty(--TRTV) & non_empty(--VAMT)","2026-04-21T13:51:48Z",NA
"CG0107","sdtm-ig-v2.0","CDISC","SDTM-IG","3.2;3.3;3.4","Medium","predicate","presence-forbidden","predicate","CORE-000292",NA,"","",NA,"find_prohibited","true-duplicate","EXVAMTU not present in dataset","exists(EXVAMTU)","2026-04-21T10:48:15Z",NA
"CG0108","sdtm-ig-v2.0","CDISC","SDTM-IG","3.2;3.3;3.4","Medium","predicate","value-conditional-null-empty","predicate","CORE-000091",NA,"","",NA,NA,"true-duplicate","--VAMTU = null","empty(--TRTV) & non_empty(--VAMTU)","2026-04-21T13:51:48Z",NA
"CG0109","sdtm-ig-v2.0","CDISC","SDTM-IG","3.2","Medium","predicate",NA,"predicate","CORE-000366",NA,"","",NA,NA,"core-is-better","DM.ACTARMCD in ('SCRNFAIL', 'NOTASSGN', 'NOTTRT')",NA,"2026-04-24T22:05:17Z",NA
"CG0110","sdtm-ig-v2.0","CDISC","SDTM-IG","3.2;3.3;3.4","Medium","predicate","value-conditional-null-populated","predicate","CORE-000092",NA,"TIG0374; TIG0375","",NA,NA,"true-duplicate","--DOSE = null","non_empty(--DOSTXT) & non_empty(--DOSE)","2026-04-21T13:51:48Z",NA
"CG0111","sdtm-ig-v2.0","CDISC","SDTM-IG","3.2;3.3;3.4","Medium","predicate","value-conditional-null-populated","predicate","CORE-000092",NA,"TIG0374; TIG0375","",NA,NA,"true-duplicate","--DOSTXT = null","non_empty(--DOSE) & non_empty(--DOSTXT)","2026-04-21T13:51:48Z",NA
"CG0112","sdtm-ig-v2.0","CDISC","SDTM-IG","3.2;3.3;3.4","Medium","predicate",NA,"predicate","CORE-000094",NA,"TIG0376","",NA,NA,"core-is-better","--DOSTXT value is non-numeric",NA,NA,NA
"CG0114","sdtm-ig-v2.0","CDISC","SDTM-IG","3.2;3.3;3.4","Medium","predicate","value-not-null","predicate","CORE-000093",NA,"TIG0377","",NA,"required","true-duplicate","--DOSU ^= null","empty(--DOSU)","2026-04-21T11:05:30Z",NA
"CG0115","sdtm-ig-v2.0","CDISC","SDTM-IG","3.2;3.3;3.4","Medium","predicate","presence-forbidden","predicate","CORE-000096",NA,"TIG0378","",NA,"find_prohibited","true-duplicate","--PORTOT not present in dataset","exists(--PORTOT)","2026-04-21T10:48:15Z",NA
"CG0116","sdtm-ig-v2.0","CDISC","SDTM-IG","3.2;3.3;3.4","Medium","predicate","presence-forbidden","predicate","CORE-000098",NA,"TIG0379","",NA,"find_prohibited","true-duplicate","--DIR not present in dataset","exists(--DIR)","2026-04-21T10:48:15Z",NA
"CG0117","sdtm-ig-v2.0","CDISC","SDTM-IG","3.2","Medium","predicate","value-cross-dataset-not-in-cond-in-set","predicate","CORE-000367",NA,"","",NA,NA,"true-duplicate","ACTARM in ('Screen Failure', 'Not Assigned', 'Not Treated', 'Unplanned Treatment')","all: - operator: missing_in_ref name: ACTARM reference_dataset: TA reference_key: ARM - operator: is_not_contained_by name: ACTARM value: ['Screen Failure', 'Not Assigned', 'Not Treated', 'Unplanned Treatment']","2026-04-24T04:13:14Z",NA
"CG0118","sdtm-ig-v2.0","CDISC","SDTM-IG","3.2","Medium","predicate","cross-lookup","predicate","CORE-000367",NA,"","",NA,"lookup","true-duplicate","ACTARM in TA.ARM","is_not_contained_by(ACTARM,TA.ARM)","2026-04-21T12:20:10Z",NA
"CG0119","sdtm-ig-v2.0","CDISC","SDTM-IG","3.2","Medium","predicate","value-conditional-equal-column","predicate","CORE-000530",NA,"","",NA,NA,"true-duplicate","ACTARM = ARM","is_contained_by(ACTARM,Screen Failure,Not Assigned) & not_equal_to(ACTARM,ARM,FALSE)","2026-04-21T13:42:52Z",NA
"CG0120","sdtm-ig-v2.0","CDISC","SDTM-IG","3.2","Medium","predicate","value-cross-dataset-not-in-cond-in-set","predicate","CORE-000368",NA,"","",NA,NA,"true-duplicate","ARM in ('Screen Failure', 'Not Assigned')","all: - operator: missing_in_ref name: ARM reference_dataset: TA reference_key: ARM - operator: is_not_contained_by name: ARM value: ['Screen Failure', 'Not Assigned']","2026-04-24T04:13:14Z",NA
"CG0121","sdtm-ig-v2.0","CDISC","SDTM-IG","3.2","Medium","predicate","cross-lookup","predicate","CORE-000368",NA,"","",NA,"lookup","true-duplicate","ARM in TA.ARM","is_not_contained_by(ARM,TA.ARM)","2026-04-21T12:20:10Z",NA
"CG0122","sdtm-ig-v2.0","CDISC","SDTM-IG","3.2","Medium","predicate","value-conditional-equal-column","predicate","CORE-000330",NA,"","",NA,NA,"true-duplicate","ARM = ACTARM","is_contained_by(ARM,Screen Failure,Not Assigned) & not_equal_to(ARM,ACTARM,FALSE)","2026-04-21T13:42:52Z",NA
"CG0123","sdtm-ig-v2.0","CDISC","SDTM-IG","3.2;3.3;3.4","Medium","predicate","value-length-le","predicate","CORE-000185",NA,"TIG0380","",NA,NA,"true-duplicate","ACTARMCD value length <= 20","longer_than(ACTARMCD,20)","2026-04-21T13:31:48Z",NA
"CG0124","sdtm-ig-v2.0","CDISC","SDTM-IG","3.2","Medium","predicate","value-cross-dataset-not-in-cond-in-set","predicate","CORE-000331",NA,"","",NA,NA,"true-duplicate","ACTARMCD in ('SCRNFAIL', 'NOTASSGN', 'NOTTRT', 'UNPLAN')","all: - operator: missing_in_ref name: ACTARMCD reference_dataset: TA reference_key: ARMCD - operator: is_not_contained_by name: ACTARMCD value: ['SCRNFAIL', 'NOTASSGN', 'NOTTRT', 'UNPLAN']","2026-04-24T04:13:14Z",NA
"CG0125","sdtm-ig-v2.0","CDISC","SDTM-IG","3.2","Medium","predicate","cross-lookup","predicate","CORE-000331",NA,"","",NA,"lookup","true-duplicate","ACTARMCD in TA.ARMCD","is_not_contained_by(ACTARMCD,TA.ARMCD)","2026-04-21T12:20:10Z",NA
"CG0126","sdtm-ig-v2.0","CDISC","SDTM-IG","3.2","Medium","predicate","cross-lookup","predicate","CORE-000531",NA,"","",NA,"lookup","true-duplicate","ARMCD in TA.ARMCD","is_not_contained_by(ARMCD,TA.ARMCD)","2026-04-21T12:20:10Z",NA
"CG0127","sdtm-ig-v2.0","CDISC","SDTM-IG","3.2","Medium","predicate","value-conditional-equal-column","predicate","CORE-000543",NA,"","",NA,NA,"true-duplicate","ACTARMCD = ARMCD","is_contained_by(ACTARMCD,SCRNFAIL,NOTASSGN) & not_equal_to(ACTARMCD,ARMCD,FALSE)","2026-04-21T13:42:52Z",NA
"CG0128","sdtm-ig-v2.0","CDISC","SDTM-IG","3.2","Medium","predicate","value-cross-dataset-not-in-cond-in-set","predicate","CORE-000531",NA,"","",NA,NA,"true-duplicate","ARMCD in ('SCRNFAIL', 'NOTASSGN')","all: - operator: missing_in_ref name: ARMCD reference_dataset: TA reference_key: ARMCD - operator: is_not_contained_by name: ARMCD value: ['SCRNFAIL', 'NOTASSGN']","2026-04-24T04:13:14Z",NA
"CG0129","sdtm-ig-v2.0","CDISC","SDTM-IG","3.2","Medium","predicate","value-conditional-equal-column","predicate","CORE-000377",NA,"","",NA,NA,"true-duplicate","ARMCD = ACTARMCD","is_contained_by(ARMCD,SCRNFAIL,NOTASSGN) & not_equal_to(ARMCD,ACTARMCD,FALSE)","2026-04-21T13:42:52Z",NA
"CG0131","sdtm-ig-v2.0","CDISC","SDTM-IG","3.2;3.3;3.4","Medium","predicate","value-in-set","predicate","CORE-000006",NA,"TIG0381","",NA,NA,"true-duplicate","DTHFL in ('Y',null)","is_not_contained_by(DTHFL,Y)","2026-04-21T16:25:34Z",NA
"CG0132","sdtm-ig-v2.0","CDISC","SDTM-IG","3.2;3.3;3.4","Medium","predicate","value-cross-dataset-eq-lit","predicate","CORE-000008",NA,"","FB0601",NA,NA,"true-duplicate","DTHFL = 'Y'","subject_has_matching_row(USUBJID,SS,SSSTRESC,DEAD) & not_equal_to(DTHFL,Y)","2026-04-21T16:17:38Z",NA
"CG0133","sdtm-ig-v2.0","CDISC","SDTM-IG","3.2;3.3;3.4","Medium","predicate","dm-dd-subject-dthfl","predicate","CORE-000108",NA,"TIG0382","FB0602",NA,NA,"true-duplicate","DTHFL = 'Y'","all: - operator: has_next_corresponding_record name: USUBJID value: reference_dataset: DD by: USUBJID - operator: not_equal_to name: DTHFL value: 'Y'","2026-04-24T04:30:31Z",NA
"CG0134","sdtm-ig-v2.0","CDISC","SDTM-IG","3.2;3.3;3.4","Medium","predicate","value-cross-dataset-eq-lit","predicate","CORE-000254",NA,"TIG0383","FB0603",NA,NA,"true-duplicate","DTHFL = 'Y'","subject_has_matching_row(USUBJID,AE,AEOUT,FATAL) & not_equal_to(DTHFL,Y)","2026-04-21T16:17:38Z",NA
"CG0135","sdtm-ig-v2.0","CDISC","SDTM-IG","3.2;3.3;3.4","Medium","predicate","value-cross-dataset-eq-lit","predicate","CORE-000253",NA,"TIG0384","FB0604",NA,NA,"true-duplicate","DTHFL = 'Y'","subject_has_matching_row(USUBJID,AE,AESDTH,Y) & not_equal_to(DTHFL,Y)","2026-04-21T16:17:38Z",NA
"CG0136","sdtm-ig-v2.0","CDISC","SDTM-IG","3.2;3.3;3.4","Medium","predicate","value-cross-dataset-eq-lit","predicate","CORE-000252",NA,"TIG0385","FB0605",NA,NA,"true-duplicate","DTHFL = 'Y'","subject_has_matching_row(USUBJID,DS,DSDECOD,DEATH) & not_equal_to(DTHFL,Y)","2026-04-21T16:17:38Z",NA
"CG0138","sdtm-ig-v2.0","CDISC","SDTM-IG","3.2","Medium","predicate",NA,"predicate","CORE-000533",NA,"","",NA,NA,"core-is-better","Population flags in SUPPDM",NA,NA,NA
"CG0140","sdtm-ig-v2.0","CDISC","SDTM-IG","3.2;3.3;3.4","Medium","predicate","dm-race-multiple-supp","predicate","CORE-000337",NA,"TIG0386","",NA,NA,"true-duplicate","RACE = 'MULTIPLE'","all: - operator: supp_row_count_exceeds name: USUBJID ref_dataset: SUPPDM qnam_pattern: '^RACE' threshold: 1 - operator: not_equal_to name: RACE value: 'MULTIPLE'","2026-04-24T08:10:15Z","Predicate via supp_row_count_exceeds (SUPPDM QNAM ^RACE rowcount)."
"CG0141","sdtm-ig-v2.0","CDISC","SDTM-IG","3.2","Medium","predicate",NA,"predicate","CORE-000369",NA,"","",NA,NA,"core-is-better","RFENDTC = null",NA,NA,NA
"CG0142","sdtm-ig-v2.0","CDISC","SDTM-IG","3.2","Medium","predicate","value-not-null","predicate","CORE-000378",NA,"","",NA,"required","true-duplicate","RFENDTC ^= null","empty(RFENDTC)","2026-04-21T11:05:30Z",NA
"CG0143","sdtm-ig-v2.0","CDISC","SDTM-IG","3.2;3.3;3.4","Medium","predicate",NA,"predicate","CORE-000370",NA,"TIG0387","",NA,NA,"core-is-better","RFICDTC = earliest DS.DSSTDTC",NA,"2026-04-24T22:05:17Z",NA
"CG0145","sdtm-ig-v2.0","CDISC","SDTM-IG","3.2","Medium","predicate",NA,"predicate","CORE-000379",NA,"","",NA,NA,"core-is-better","RFSTDTC = null",NA,NA,NA
"CG0146","sdtm-ig-v2.0","CDISC","SDTM-IG","3.2","Medium","predicate","value-not-null","predicate","CORE-000380",NA,"","",NA,"required","true-duplicate","RFSTDTC ^= null","empty(RFSTDTC)","2026-04-21T11:05:30Z",NA
"CG0147","sdtm-ig-v2.0","CDISC","SDTM-IG","3.2;3.3;3.4","Medium","predicate",NA,"predicate","CORE-000238",NA,"TIG0388","",NA,NA,"core-is-better","RFXENDTC = latest value of EX.EXSTDTC or EX.EXENDTC",NA,"2026-04-24T22:05:17Z","Requires max/latest-across-related-rows semantic (not supported by current ordinal by_key op)"
"CG0148","sdtm-ig-v2.0","CDISC","SDTM-IG","3.2;3.3;3.4","Medium","predicate",NA,"predicate","CORE-000239",NA,"TIG0389","",NA,NA,"core-is-better","RFXSTDTC = earliest EX.EXSTDTC",NA,"2026-04-24T22:05:17Z","Requires max/latest-across-related-rows semantic (not supported by current ordinal by_key op)"
"CG0149","sdtm-ig-v2.0","CDISC","SDTM-IG","3.2;3.3;3.4","Medium","predicate","value-length-le","predicate","CORE-000088",NA,"TIG0169; TIG0390","",NA,NA,"true-duplicate","SETCD value length <= 8","longer_than(SETCD,8)","2026-04-21T13:31:48Z",NA
"CG0150","sdtm-ig-v2.0","CDISC","SDTM-IG","3.2;3.3;3.4","Medium","predicate","uniqueness-composite-key","predicate","CORE-000186",NA,"TIG0391","",NA,NA,"true-duplicate","SUBJID unique within a study","is_not_unique_set(STUDYID,SUBJID)","2026-04-21T16:24:26Z",NA
"CG0151","sdtm-ig-v2.0","CDISC","SDTM-IG","3.2;3.3;3.4","Medium","predicate","uniqueness-composite-key","predicate","CORE-000351",NA,"TIG0392; TIG0255","",NA,NA,"true-duplicate","USUBJID unique within a submission","is_not_unique_set(STUDYID,USUBJID)","2026-04-21T16:24:26Z",NA
"CG0152","sdtm-ig-v2.0","CDISC","SDTM-IG","3.2;3.3;3.4","Medium","predicate","value-conditional-null-eq","predicate","CORE-000009",NA,"TIG0393; TIG0061","",NA,NA,"true-duplicate","ELEMENT = null","equal_to(ETCD,UNPLAN) & non_empty(ELEMENT)","2026-04-21T13:51:48Z",NA
"CG0153","sdtm-ig-v2.0","CDISC","SDTM-IG","3.2;3.3;3.4","Medium","predicate","value-length-le","predicate","CORE-000010",NA,"TIG0394","",NA,NA,"true-duplicate","ARMCD value length <= 20","longer_than(ARMCD,20)","2026-04-21T13:31:48Z",NA
"CG0154","sdtm-ig-v2.0","CDISC","SDTM-IG","3.2;3.3;3.4","Medium","predicate","uniqueness-grouped","predicate","CORE-000132",NA,"","FB0914",NA,NA,"true-duplicate","ELEMENT and ETCD have a one-to-one relationship","is_not_unique_relationship(ETCD,ELEMENT)","2026-04-21T16:25:34Z",NA
"CG0155","sdtm-ig-v2.0","CDISC","SDTM-IG","3.2;3.3","Medium","narrative",NA,"narrative",NA,NA,NA,NA,NA,NA,NA,"Value length = 4 characters beginning with 'AP' and ending with 2 character SDTM domain",NA,NA,NA
"CG0156","sdtm-ig-v2.0","CDISC","SDTM-IG","3.2;3.3;3.4","Medium","predicate","value-in-cross-dataset-col","predicate",NA,NA,NA,NA,NA,NA,NA,"APID in POOLDEF.POOLID","all: - operator: missing_in_ref name: ""APID"" reference_dataset: ""POOLDEF"" reference_key: ""POOLID""","2026-04-24T09:20:58Z","AP-scoped (Associated Persons, SDTMIG-AP); deferred"
"CG0157","sdtm-ig-v2.0","CDISC","SDTM-IG","3.2;3.3;3.4","Medium","predicate","value-in-cross-dataset-col","predicate",NA,NA,NA,NA,NA,NA,NA,"RSUBJID in DM.USUBJID","all: - operator: missing_in_ref name: ""RSUBJID"" reference_dataset: ""DM"" reference_key: ""USUBJID""","2026-04-24T09:20:58Z","AP-scoped (Associated Persons, SDTMIG-AP); deferred"
"CG0158","sdtm-ig-v2.0","CDISC","SDTM-IG","3.2;3.3;3.4","Medium","predicate","value-in-cross-dataset-col","predicate",NA,NA,NA,NA,NA,NA,NA,"RSUBJID in POOLDEF.POOLID","all: - operator: missing_in_ref name: ""RSUBJID"" reference_dataset: ""POOLDEF"" reference_key: ""POOLID""","2026-04-24T09:20:58Z","AP-scoped (Associated Persons, SDTMIG-AP); deferred"
"CG0159","sdtm-ig-v2.0","CDISC","SDTM-IG","3.2;3.3;3.4","Medium","narrative",NA,"narrative",NA,NA,NA,NA,NA,NA,NA,"RSUBJID = null",NA,NA,NA
"CG0160","sdtm-ig-v2.0","CDISC","SDTM-IG","3.2;3.3;3.4","Medium","predicate","value-conditional-populated","predicate",NA,NA,NA,NA,NA,NA,NA,"Describes relationship of associated person to study subject or pool","all: - name: RSUBJID operator: non_empty - name: SREL operator: empty","2026-04-24T16:33:05Z",NA
"CG0161","sdtm-ig-v2.0","CDISC","SDTM-IG","3.2;3.3;3.4","Medium","predicate","value-conditional-populated","predicate",NA,NA,NA,NA,NA,NA,NA,"Describes relationship of associated person to device identified in RDEVID","all: - name: RDEVID operator: non_empty - name: SREL operator: empty","2026-04-24T16:33:05Z",NA
"CG0162","sdtm-ig-v2.0","CDISC","SDTM-IG","3.2;3.3;3.4","Medium","predicate","relrec-double-null-populated","predicate",NA,NA,NA,NA,NA,NA,NA,"Describes relationship of associated person to study identified in STUDYID","all: - operator: empty name: RSUBJID - operator: empty name: RDEVID - operator: empty name: SREL","2026-04-24T16:33:10Z",NA
"CG0163","sdtm-ig-v2.0","CDISC","SDTM-IG","3.2;3.3;3.4","Medium","predicate","value-not-null","predicate","CORE-000158",NA,"TIG0396","",NA,"required","true-duplicate","IDVAR ^= null","empty(IDVAR)","2026-04-21T11:05:30Z",NA
"CG0164","sdtm-ig-v2.0","CDISC","SDTM-IG","3.2;3.3;3.4","Medium","predicate","value-conditional-null-empty","predicate","CORE-000090",NA,"TIG0397","",NA,NA,"true-duplicate","IDVAR = null","empty(RDOMAIN) & non_empty(IDVAR)","2026-04-21T13:51:48Z",NA
"CG0166","sdtm-ig-v2.0","CDISC","SDTM-IG","3.2;3.3;3.4","Medium","predicate","value-not-null","predicate","CORE-000017",NA,"TIG0398","",NA,"required","true-duplicate","RDOMAIN ^= null","empty(RDOMAIN)","2026-04-21T11:05:30Z",NA
"CG0167","sdtm-ig-v2.0","CDISC","SDTM-IG","3.2;3.3;3.4","Medium","narrative",NA,"narrative",NA,NA,NA,NA,NA,NA,NA,"Comments are unsolicited, free-text and voluntary",NA,NA,NA
"CG0168","sdtm-ig-v2.0","CDISC","SDTM-IG","3.2;3.3;3.4","Medium","predicate","value-conditional-null-populated","predicate","CORE-000187",NA,"TIG0400","",NA,NA,"true-duplicate","CODTC = null","non_empty(IDVAR) & non_empty(CODTC)","2026-04-21T13:51:48Z",NA
"CG0169","sdtm-ig-v2.0","CDISC","SDTM-IG","3.2;3.3;3.4","Medium","narrative",NA,"narrative",NA,NA,NA,NA,NA,NA,NA,"COVALn not present in dataset",NA,NA,NA
"CG0171","sdtm-ig-v2.0","CDISC","SDTM-IG","3.2;3.3;3.4","Medium","predicate","value-compare-subject-ordinal","predicate","CORE-000259",NA,"","FB0613",NA,NA,"true-duplicate","SSDTC >= DM.DTHDTC","non_empty(SSDTC) & less_than_by_key(SSDTC,DM,DTHDTC,USUBJID)","2026-04-21T16:07:06Z",NA
"CG0172","sdtm-ig-v2.0","CDISC","SDTM-IG","3.2;3.3;3.4","Medium","predicate",NA,"predicate","CORE-000178",NA,"","",NA,NA,"core-is-better","SSDTC >= all DS.DSSTDTC",NA,"2026-04-24T22:05:17Z",NA
"CG0173","sdtm-ig-v2.0","CDISC","SDTM-IG","3.2;3.3;3.4","Medium","narrative",NA,"narrative",NA,NA,NA,NA,NA,NA,NA,"The name of the variable is used as the value of FATESTCD.",NA,NA,NA
"CG0174","sdtm-ig-v2.0","CDISC","SDTM-IG","3.2;3.3;3.4","Medium","narrative",NA,"blocker:requires-dynamic-parent-domain-link-op","CORE-000744",NA,"TIG0403","",NA,NA,"cg-is-better","FAOBJ in (--TERM, --TRT, --DECOD)",NA,"2026-04-24T04:31:01Z","Q4 triage: condition not machine-checkable against SDTM columns."
"CG0175","sdtm-ig-v2.0","CDISC","SDTM-IG","3.2;3.3;3.4","Medium","predicate","value-conditional-literal-assert","predicate","CORE-000011",NA,"TIG0404","",NA,NA,"true-duplicate","IEORRES = 'Y'","is_contained_by(IECAT,EXCLUSION) & not_equal_to(IEORRES,Y)","2026-04-21T14:32:01Z",NA
"CG0176","sdtm-ig-v2.0","CDISC","SDTM-IG","3.2;3.3;3.4","Medium","predicate","value-conditional-literal-assert","predicate","CORE-000001",NA,"TIG0405","",NA,NA,"true-duplicate","IEORRES = 'N'","is_contained_by(IECAT,INCLUSION) & not_equal_to(IEORRES,N)","2026-04-21T14:32:01Z",NA
"CG0177","sdtm-ig-v2.0","CDISC","SDTM-IG","3.2;3.3;3.4","Medium","predicate","value-equal-column","predicate","CORE-000025",NA,"TIG0406","",NA,NA,"true-duplicate","IESTRESC = IEORRES","not_equal_to(IESTRESC,IEORRES,FALSE)","2026-04-21T13:45:27Z",NA
"CG0178","sdtm-ig-v2.0","CDISC","SDTM-IG","3.2;3.3;3.4","Medium","predicate","cross-lookup","predicate","CORE-000227",NA,"TIG0407","",NA,"lookup","true-duplicate","IETEST in TI.IETEST","is_not_contained_by(IETEST,TI.IETEST)","2026-04-21T12:20:10Z",NA
"CG0179","sdtm-ig-v2.0","CDISC","SDTM-IG","3.2;3.3;3.4","Medium","predicate","cross-lookup","predicate","CORE-000228",NA,"TIG0408","",NA,"lookup","true-duplicate","IETESTCD in TI.IETESTCD","is_not_contained_by(IETESTCD,TI.IETESTCD)","2026-04-21T12:20:10Z",NA
"CG0180","sdtm-ig-v2.0","CDISC","SDTM-IG","3.2;3.3;3.4","Medium","predicate",NA,"predicate","CORE-000290",NA,"TIG0409","",NA,NA,"core-is-better","LBORNRLO = null",NA,NA,NA
"CG0181","sdtm-ig-v2.0","CDISC","SDTM-IG","3.2;3.3;3.4","Medium","predicate",NA,"predicate","CORE-000289",NA,"TIG0410","",NA,NA,"core-is-better","LBORNRHI = null",NA,NA,NA
"CG0182","sdtm-ig-v2.0","CDISC","SDTM-IG","3.2;3.3;3.4","Medium","predicate",NA,"predicate","CORE-000298",NA,"TIG0411","",NA,NA,"core-is-better","LBSTNRLO = null",NA,NA,NA
"CG0183","sdtm-ig-v2.0","CDISC","SDTM-IG","3.2;3.3;3.4","Medium","predicate",NA,"predicate","CORE-000299",NA,"TIG0412","",NA,NA,"core-is-better","LBSTNRHI = null",NA,NA,NA
"CG0184","sdtm-ig-v2.0","CDISC","SDTM-IG","3.2;3.3;3.4","Medium","narrative",NA,"narrative",NA,NA,NA,NA,NA,NA,NA,"LBSTNRC = null",NA,NA,NA
"CG0185","sdtm-ig-v2.0","CDISC","SDTM-IG","3.2;3.3;3.4","Medium","predicate",NA,"predicate","CORE-000169",NA,"TIG0414","",NA,NA,"core-is-better","LBTOXGR is a numeric value",NA,NA,NA
"CG0186","sdtm-ig-v2.0","CDISC","SDTM-IG","3.2;3.3;3.4","Medium","predicate","unit-variable-required-when-var-populated","predicate",NA,NA,NA,NA,NA,NA,NA,"LBORNRLO is expressed using the units in LBORRESU","all: - operator: non_empty name: LBORNRLO - operator: matches_regex name: LBORNRLO value: ""^[-+]?[0-9]*\\.?[0-9]+$"" - operator: empty name: LBORRESU","2026-04-24T09:34:59Z",NA
"CG0187","sdtm-ig-v2.0","CDISC","SDTM-IG","3.2;3.3;3.4","Medium","predicate","unit-variable-required-when-var-populated","predicate",NA,NA,NA,NA,NA,NA,NA,"LBORNRHI is expressed using the units in LBORRESU","all: - operator: non_empty name: LBORNRHI - operator: matches_regex name: LBORNRHI value: ""^[-+]?[0-9]*\\.?[0-9]+$"" - operator: empty name: LBORRESU","2026-04-24T09:34:59Z",NA
"CG0188","sdtm-ig-v2.0","CDISC","SDTM-IG","3.2;3.3;3.4","Medium","predicate","unit-variable-required-when-var-populated","predicate",NA,NA,NA,NA,NA,NA,NA,"LBSTNRLO  is expressed using the units in LBSTRESU","all: - operator: non_empty name: LBSTNRLO - operator: matches_regex name: LBSTNRLO value: ""^[-+]?[0-9]*\\.?[0-9]+$"" - operator: empty name: LBSTRESU","2026-04-24T09:34:59Z",NA
"CG0189","sdtm-ig-v2.0","CDISC","SDTM-IG","3.2;3.3;3.4","Medium","predicate","unit-variable-required-when-var-populated","predicate",NA,NA,NA,NA,NA,NA,NA,"LBSTNRHI is expressed using the units in LBSTRESU","all: - operator: non_empty name: LBSTNRHI - operator: matches_regex name: LBSTNRHI value: ""^[-+]?[0-9]*\\.?[0-9]+$"" - operator: empty name: LBSTRESU","2026-04-24T09:34:59Z",NA
"CG0190","sdtm-ig-v2.0","CDISC","SDTM-IG","3.2;3.3;3.4","Medium","predicate","unit-variable-required-when-var-populated","predicate",NA,NA,NA,NA,NA,NA,NA,"LBSTNRC  is expressed using the units in LBSTRESU","all: - operator: non_empty name: LBSTNRC - operator: matches_regex name: LBSTNRC value: ""^[-+]?[0-9]*\\.?[0-9]+$"" - operator: empty name: LBSTRESU","2026-04-24T09:34:59Z",NA
"CG0191","sdtm-ig-v2.0","CDISC","SDTM-IG","3.2;3.3;3.4","Medium","predicate","submission-conditional-dataset-required","predicate","CORE-000188",NA,"","",NA,NA,"true-duplicate","MB dataset present in study","all: - operator: study_metadata_is key: collected_domains value: MB - operator: not_exists name: MB","2026-04-24T10:02:11Z",NA
"CG0192","sdtm-ig-v2.0","CDISC","SDTM-IG","3.2","Medium","narrative",NA,"blocker:no-machine-checkable-condition",NA,NA,NA,NA,NA,NA,NA,"MBTESTCD = 'ORGANISM'",NA,"2026-04-24T04:31:01Z","Q4 triage: condition not machine-checkable against SDTM columns."
"CG0193","sdtm-ig-v2.0","CDISC","SDTM-IG","3.2","Medium","predicate","value-not-null","predicate","CORE-000332",NA,"","",NA,"required","true-duplicate","MBRESCAT ^= null","empty(MBRESCAT)","2026-04-21T11:05:30Z",NA
"CG0196","sdtm-ig-v2.0","CDISC","SDTM-IG","3.2;3.3;3.4","Medium","narrative",NA,"blocker:no-machine-checkable-condition",NA,NA,NA,NA,NA,NA,NA,"PEORRES = 'NORMAL'",NA,"2026-04-24T04:31:01Z","Q4 triage: condition not machine-checkable against SDTM columns."
"CG0197","sdtm-ig-v2.0","CDISC","SDTM-IG","3.2;3.3;3.4","Medium","narrative",NA,"narrative",NA,NA,NA,NA,NA,NA,NA,"PESTRESC = PEORRES OR a dictionary coded preferred term",NA,NA,"Q27: stays narrative; complex OR condition with dict-coded preferred term"
"CG0198","sdtm-ig-v2.0","CDISC","SDTM-IG","3.2;3.3;3.4","Medium","narrative",NA,"narrative",NA,NA,NA,NA,NA,NA,NA,"Relationships represented in RELREC are collected relationships",NA,NA,NA
"CG0200","sdtm-ig-v2.0","CDISC","SDTM-IG","3.2;3.3;3.4","Medium","predicate",NA,"predicate","CORE-000484",NA,"TIG0421","",NA,NA,"core-is-better","Within a subject each unique RELID is present on multiple RELREC records",NA,"2026-04-24T22:05:17Z",NA
"CG0201","sdtm-ig-v2.0","CDISC","SDTM-IG","3.2;3.3;3.4","Medium","predicate","value-conditional-regex-match","predicate","CORE-000136",NA,"TIG0422","",NA,NA,"true-duplicate","IDVAR ^= --SEQ","empty(IDVARVAL) & empty(USUBJID) & matches_regex(IDVAR,.*SEQ)","2026-04-21T15:10:12Z",""
"CG0202","sdtm-ig-v2.0","CDISC","SDTM-IG","3.2;3.3","Medium","predicate","value-not-null","predicate","CORE-000375",NA,"","",NA,"required","true-duplicate","QEVAL ^= null","empty(QEVAL)","2026-04-21T11:05:30Z",NA
"CG0203","sdtm-ig-v2.0","CDISC","SDTM-IG","3.2;3.3;3.4","Medium","predicate","value-not-null","predicate","CORE-000134",NA,"TIG0423","",NA,"required","true-duplicate","IDVAR ^= null","empty(IDVAR)","2026-04-21T11:05:30Z",NA
"CG0204","sdtm-ig-v2.0","CDISC","SDTM-IG","3.2;3.3;3.4","Medium","predicate","value-not-null","predicate","CORE-000135",NA,"TIG0424","",NA,"required","true-duplicate","IDVARVAL ^= null","empty(IDVARVAL)","2026-04-21T11:05:30Z",NA
"CG0205","sdtm-ig-v2.0","CDISC","SDTM-IG","3.2;3.3;3.4","Medium","predicate","split-dataset-name-length","predicate","CORE-000293",NA,"TIG0425","",NA,NA,"true-duplicate","Suppqual dataset names <= 8 characters","operator: dataset_name_length_not_in_range min_len: ~ max_len: 8","2026-04-24T14:00:38Z",NA
"CG0206","sdtm-ig-v2.0","CDISC","SDTM-IG","3.2;3.3;3.4","Medium","predicate","value-conditional-null-eq","predicate","CORE-000020",NA,"TIG0426","",NA,NA,"true-duplicate","TAETORD = null","equal_to(ETCD,UNPLAN) & non_empty(TAETORD)","2026-04-21T13:51:48Z",NA
"CG0207","sdtm-ig-v2.0","CDISC","SDTM-IG","3.2;3.3;3.4","Medium","predicate","se-element-next-equals-start","predicate","CORE-000352",NA,"TIG0427","",NA,NA,"true-duplicate","SEENDTC = SESTDTC of next ELEMENT","operator: next_row_not_equal name: SEENDTC value: prev_name: SESTDTC order_by: TAETORD group_by: - USUBJID","2026-04-24T16:22:47Z",NA
"CG0208","sdtm-ig-v2.0","CDISC","SDTM-IG","3.2;3.3;3.4","Medium","predicate","value-not-null","predicate","CORE-000002",NA,"","",NA,"required","true-duplicate","SESTDTC ^= null","empty(SESTDTC)","2026-04-21T11:05:30Z",NA
"CG0209","sdtm-ig-v2.0","CDISC","SDTM-IG","3.2;3.3;3.4","Medium","predicate","value-not-null","predicate","CORE-000527",NA,"TIG0428","",NA,"required","true-duplicate","SEENDTC ^= null","empty(SEENDTC)","2026-04-21T11:05:30Z",NA
"CG0210","sdtm-ig-v2.0","CDISC","SDTM-IG","3.2;3.3;3.4","Medium","predicate","value-conditional-empty-noteq-lit","predicate","CORE-000256",NA,"TIG0429; TIG0062","",NA,NA,"true-duplicate","ETCD ^= 'UNPLAN'","empty(SEUPDES) & equal_to(ETCD,UNPLAN)","2026-04-21T15:52:59Z",NA
"CG0211","sdtm-ig-v2.0","CDISC","SDTM-IG","3.2;3.3;3.4","Medium","predicate","value-conditional-populated-eq-lit","predicate","CORE-000095",NA,"TIG0430","",NA,NA,"true-duplicate","ETCD = 'UNPLAN'","non_empty(SEUPDES) & not_equal_to(ETCD,UNPLAN)","2026-04-21T15:52:59Z",NA
"CG0213","sdtm-ig-v2.0","CDISC","SDTM-IG","3.2;3.3","Medium","predicate","cross-lookup","predicate","CORE-000842",NA,"","",NA,"lookup","true-duplicate","VISITNUM in TV.VISITNUM","is_not_contained_by(VISITNUM,TV.VISITNUM)","2026-04-21T12:20:10Z",NA
"CG0214","sdtm-ig-v2.0","CDISC","SDTM-IG","3.2;3.3","Medium","predicate",NA,"predicate","CORE-000843",NA,"","",NA,NA,"core-is-better","VISITNUM not in TV.VISITNUM",NA,"2026-04-24T22:05:17Z",NA
"CG0215","sdtm-ig-v2.0","CDISC","SDTM-IG","3.2;3.3","Medium","predicate","cross-lookup","predicate","CORE-000333",NA,"","",NA,"lookup","true-duplicate","VISIT in TV.VISIT","is_not_contained_by(VISIT,TV.VISIT)","2026-04-21T12:20:10Z",NA
"CG0216","sdtm-ig-v2.0","CDISC","SDTM-IG","3.2;3.3","Medium","predicate","value-conditional-null-populated","predicate","CORE-000501",NA,"","",NA,NA,"true-duplicate","VISITDY = null","non_empty(SVUPDES) & non_empty(VISITDY)","2026-04-21T13:51:48Z",NA
"CG0217","sdtm-ig-v2.0","CDISC","SDTM-IG","3.2;3.3;3.4","Medium","predicate","value-equals-cross-dataset-col","predicate","CORE-000784",NA,"TIG0431","",NA,NA,"true-duplicate","TAETORD = SE.TAETORD","all: - operator: differs_by_key name: ""TAETORD"" reference_dataset: ""SE"" reference_column: ""TAETORD"" key: ""USUBJID""","2026-04-24T09:20:55Z",NA
"CG0218","sdtm-ig-v2.0","CDISC","SDTM-IG","3.2;3.3;3.4","Medium","predicate","value-equals-cross-dataset-col","predicate","CORE-000097",NA,"TIG0432","",NA,NA,"true-duplicate","EPOCH = SE.EPOCH","all: - operator: differs_by_key name: ""EPOCH"" reference_dataset: ""SE"" reference_column: ""EPOCH"" key: ""[USUBJID, ETCD]""","2026-04-24T09:20:55Z",NA
"CG0219","sdtm-ig-v2.0","CDISC","SDTM-IG","3.2;3.3;3.4","Medium","predicate",NA,"predicate","CORE-000575",NA,"TIG0266; TIG0433","",NA,NA,"core-is-better","At least one timing variable present in dataset",NA,"2026-04-24T22:05:17Z",NA
"CG0220","sdtm-ig-v2.0","CDISC","SDTM-IG","3.2;3.3;3.4","Medium","predicate","value-study-day","predicate","CORE-000552",NA,"TIG0434","",NA,NA,"true-duplicate","--STDY is properly calculated per study day algorithm","study_day_mismatch(--STDY,DM,RFSTDTC,--STDTC,USUBJID)","2026-04-21T16:07:06Z",NA
"CG0221","sdtm-ig-v2.0","CDISC","SDTM-IG","3.2;3.3;3.4","Medium","predicate",NA,"predicate","CORE-000138",NA,"TIG0435","",NA,NA,"core-is-better","--STDY = null",NA,NA,NA
"CG0222","sdtm-ig-v2.0","CDISC","SDTM-IG","3.2;3.3;3.4","Medium","predicate","value-study-day","predicate","CORE-000553",NA,"TIG0436","",NA,NA,"true-duplicate","--ENDY is properly calculated per study day algorithm","study_day_mismatch(--ENDY,DM,RFSTDTC,--ENDTC,USUBJID)","2026-04-21T16:07:06Z",NA
"CG0223","sdtm-ig-v2.0","CDISC","SDTM-IG","3.2;3.3;3.4","Medium","predicate",NA,"predicate","CORE-000139",NA,"TIG0437","",NA,NA,"core-is-better","--ENDY = null",NA,NA,NA
"CG0225","sdtm-ig-v2.0","CDISC","SDTM-IG","3.2;3.3;3.4","Medium","predicate",NA,"predicate","CORE-000140",NA,"TIG0438","",NA,NA,"core-is-better","VISITDY = null",NA,"2026-04-24T22:05:17Z",NA
"CG0226","sdtm-ig-v2.0","CDISC","SDTM-IG","3.2;3.3;3.4","Medium","predicate","value-conditional-null-crossref","predicate","CORE-000262",NA,"TIG0439","",NA,NA,"true-duplicate","--STRF = null","non_empty(--STRF) & ref_col_empty(USUBJID,DM,RFSTDTC)","2026-04-21T15:40:47Z",NA
"CG0227","sdtm-ig-v2.0","CDISC","SDTM-IG","3.2;3.3;3.4","Medium","predicate","value-conditional-null-crossref","predicate","CORE-000177",NA,"TIG0440","",NA,NA,"true-duplicate","--ENRF = null","non_empty(--ENRF) & ref_col_empty(USUBJID,DM,RFENDTC)","2026-04-21T15:40:47Z",NA
"CG0232","sdtm-ig-v2.0","CDISC","SDTM-IG","3.2;3.3;3.4","Medium","predicate","value-in-set","predicate","CORE-000763",NA,"TIG0441","",NA,NA,"true-duplicate","--STRTPT in ('BEFORE', 'COINCIDENT', 'UNKNOWN')","operator: is_not_contained_by name: --STRTPT value: ['BEFORE', 'COINCIDENT', 'UNKNOWN']","2026-04-24T12:24:10Z",NA
"CG0233","sdtm-ig-v2.0","CDISC","SDTM-IG","3.2;3.3;3.4","Medium","predicate","value-in-set","predicate","CORE-000710",NA,"TIG0442","",NA,NA,"true-duplicate","--STRTPT in ('BEFORE', 'COINCIDENT', 'AFTER', 'UNKNOWN')","operator: is_not_contained_by name: --STRTPT value: ['BEFORE', 'COINCIDENT', 'AFTER', 'UNKNOWN']","2026-04-24T12:24:10Z",NA
"CG0234","sdtm-ig-v2.0","CDISC","SDTM-IG","3.2;3.3;3.4","Medium","predicate","value-in-set","predicate","CORE-000324",NA,"TIG0443","",NA,NA,"true-duplicate","--ENRTPT in ('BEFORE', 'COINCIDENT', 'ONGOING', 'UNKNOWN')","operator: is_not_contained_by name: --ENRTPT value: ['BEFORE', 'COINCIDENT', 'ONGOING', 'UNKNOWN']","2026-04-24T12:24:10Z",NA
"CG0235","sdtm-ig-v2.0","CDISC","SDTM-IG","3.2;3.3;3.4","Medium","predicate","value-in-set","predicate","CORE-000572",NA,"TIG0444","",NA,NA,"true-duplicate","--ENRTPT in ('BEFORE', 'COINCIDENT', 'ONGOING', 'AFTER', 'UNKNOWN')","operator: is_not_contained_by name: --ENRTPT value: ['BEFORE', 'COINCIDENT', 'ONGOING', 'AFTER', 'UNKNOWN']","2026-04-24T12:24:10Z",NA
"CG0236","sdtm-ig-v2.0","CDISC","SDTM-IG","3.2;3.3;3.4","Medium","narrative",NA,"narrative",NA,NA,NA,NA,NA,NA,NA,"--DTC is date/time of specimen collection or observation, not date/time of recording/acquisition",NA,NA,NA
"CG0237","sdtm-ig-v2.0","CDISC","SDTM-IG","3.2;3.3;3.4","Medium","narrative",NA,"narrative",NA,NA,NA,NA,NA,NA,NA,"--DTC is date/time of recording/data acquisition",NA,NA,NA
"CG0238","sdtm-ig-v2.0","CDISC","SDTM-IG","3.2;3.3;3.4","Medium","predicate","value-conforms-to-iso8601","predicate",NA,NA,NA,NA,NA,NA,NA,"--ORRES in ISO 8601 date format","operator: value_not_iso8601 name: --ORRES kind: date","2026-04-24T13:46:05Z",NA
"CG0240","sdtm-ig-v2.0","CDISC","SDTM-IG","3.2;3.3;3.4","Medium","predicate",NA,"predicate","CORE-000141",NA,"TIG0448","FB0922",NA,NA,"core-is-better","--TPT and --TPTNUM have a one-to-one relationship",NA,NA,NA
"CG0241","sdtm-ig-v2.0","CDISC","SDTM-IG","3.2;3.3;3.4","Medium","predicate",NA,"predicate","CORE-000142",NA,"TIG0449","",NA,NA,"core-is-better","--ELTM is the same value across records with the same values of DOMAIN, VISITNUM, --TPTREF, and --TPTNUM",NA,NA,NA
"CG0244","sdtm-ig-v2.0","CDISC","SDTM-IG","3.2","Medium","predicate","value-in-literal-set","predicate","CORE-000371",NA,"","",NA,NA,"true-duplicate","ARM not in ('Screen Failure', 'Not Assigned', 'Unplanned Treatment', 'Not Treated')","expand: """" operator: is_contained_by name: ARM value: ['Screen Failure', 'Not Assigned', 'Unplanned Treatment', 'Not Treated']","2026-04-24T12:23:53Z",NA
"CG0246","sdtm-ig-v2.0","CDISC","SDTM-IG","3.2;3.3;3.4","Medium","predicate","value-length-le","predicate","CORE-000143",NA,"TIG0450; TIG0165","",NA,NA,"true-duplicate","ETCD value length <= 8","longer_than(ETCD,8)","2026-04-21T13:31:48Z",NA
"CG0247","sdtm-ig-v2.0","CDISC","SDTM-IG","3.2;3.3;3.4","Medium","predicate",NA,"predicate","CORE-000144",NA,"TIG0451","",NA,NA,"core-is-better","TAETORD is unique within an ARM",NA,NA,NA
"CG0248","sdtm-ig-v2.0","CDISC","SDTM-IG","3.2;3.3;3.4","Medium","predicate","value-regex-format","predicate","CORE-000534",NA,"TIG0452; TIG0148","",NA,NA,"true-duplicate","TAETORD is an integer","operator: not_matches_regex name: TAETORD value: '^[0-9]+$'","2026-04-24T12:24:18Z",NA
"CG0249","sdtm-ig-v2.0","CDISC","SDTM-IG","3.2;3.3;3.4","Medium","narrative",NA,"narrative",NA,NA,NA,NA,NA,NA,NA,"TATRANS = null",NA,NA,NA
"CG0250","sdtm-ig-v2.0","CDISC","SDTM-IG","3.2;3.3;3.4","Medium","predicate","epoch-unique-per-conceptual-period","predicate",NA,NA,NA,NA,NA,NA,NA,"Each value of EPOCH is not associated with more than one conceptual trial period","operator: is_not_unique_relationship name: ""EPOCH"" value: related_name: ""TAETORD""","2026-04-24T16:22:48Z",NA
"CG0251","sdtm-ig-v2.0","CDISC","SDTM-IG","3.2;3.3;3.4","Medium","predicate","value-not-null","predicate",NA,NA,NA,NA,NA,"required",NA,"TABRANCH ^= null","empty(TABRANCH)","2026-04-21T11:05:30Z",NA
"CG0252","sdtm-ig-v2.0","CDISC","SDTM-IG","3.2;3.3;3.4","Medium","predicate","value-not-null","predicate",NA,NA,NA,NA,NA,"required",NA,"TATRANS ^= null","empty(TATRANS)","2026-04-21T11:05:30Z",NA
"CG0253","sdtm-ig-v2.0","CDISC","SDTM-IG","3.2;3.3;3.4","Medium","predicate","value-not-null","predicate",NA,NA,NA,NA,NA,"required",NA,"TIVERS ^= null","empty(TIVERS)","2026-04-21T11:05:30Z",NA
"CG0254","sdtm-ig-v2.0","CDISC","SDTM-IG","3.2;3.3;3.4","Medium","narrative",NA,"narrative",NA,NA,NA,NA,NA,NA,NA,"TIVERS present in dataset",NA,NA,NA
"CG0255","sdtm-ig-v2.0","CDISC","SDTM-IG","3.2;3.3;3.4","Medium","predicate",NA,"predicate","CORE-000145",NA,"","",NA,NA,"core-is-better","IETESTCD unique within TIVERS",NA,NA,NA
"CG0256","sdtm-ig-v2.0","CDISC","SDTM-IG","3.2;3.3;3.4","Medium","predicate",NA,"predicate","CORE-000146",NA,"","",NA,NA,"core-is-better","IETESTCD unique in dataset",NA,NA,NA
"CG0257","sdtm-ig-v2.0","CDISC","SDTM-IG","3.2;3.3;3.4","Medium","predicate","value-length-le","predicate","CORE-000147",NA,"TIG0178; TIG0461","",NA,NA,"true-duplicate","TSPARMCD value length <= 8","longer_than(TSPARMCD,8)","2026-04-21T13:31:48Z",NA
"CG0258","sdtm-ig-v2.0","CDISC","SDTM-IG","3.2;3.3;3.4","Medium","predicate","value-length-le","predicate","CORE-000148",NA,"TIG0462","",NA,NA,"true-duplicate","TSPARM value length <= 40","longer_than(TSPARM,40)","2026-04-21T13:31:48Z",NA
"CG0259","sdtm-ig-v2.0","CDISC","SDTM-IG","3.2;3.3;3.4","Medium","predicate","value-not-null","predicate","CORE-000149",NA,"","",NA,"required","true-duplicate","TSVALNF ^= null","empty(TSVALNF)","2026-04-21T11:05:30Z",NA
"CG0260","sdtm-ig-v2.0","CDISC","SDTM-IG","3.2;3.3;3.4","Medium","predicate","value-conditional-null-populated","predicate","CORE-000150",NA,"","",NA,NA,"true-duplicate","TSVALNF = null","non_empty(TSVAL) & non_empty(TSVALNF)","2026-04-21T13:51:48Z",NA
"CG0261","sdtm-ig-v2.0","CDISC","SDTM-IG","3.2;3.3;3.4","Medium","predicate","value-not-null","predicate","CORE-000151",NA,"","",NA,"required","true-duplicate","TSVAL ^= null","empty(TSVAL)","2026-04-21T11:05:30Z",NA
"CG0262","sdtm-ig-v2.0","CDISC","SDTM-IG","3.2;3.3;3.4","Medium","predicate",NA,"predicate","CORE-000582",NA,"","",NA,NA,"core-is-better","TSVALn ^= null",NA,"2026-04-24T22:05:17Z","narrative: indexed suffix ordering (TSVALn present when TSVAL(n+1) present) -- requires numeric-suffix-order op not yet built"
"CG0265","sdtm-ig-v2.0","CDISC","SDTM-IG","3.2;3.3;3.4","Medium","predicate","uniqueness-grouped","predicate","CORE-000152",NA,"TIG0467","",NA,NA,"true-duplicate","TSVALCD and TSVAL have a one-to-one relationship.","expand: """" all: - name: TSVALCD operator: is_not_unique_relationship value: related_name: TSVAL","2026-04-24T13:30:09Z",NA
"CG0266","sdtm-ig-v2.0","CDISC","SDTM-IG","3.2;3.3;3.4","Medium","predicate","value-not-null","predicate","CORE-000153",NA,"","",NA,"required","true-duplicate","TSVCDREF ^= null","empty(TSVCDREF)","2026-04-21T11:05:30Z",NA
"CG0267","sdtm-ig-v2.0","CDISC","SDTM-IG","3.2;3.3;3.4","Medium","predicate","value-not-null","predicate",NA,NA,NA,NA,NA,"required",NA,"TSVCDVER ^= null","empty(TSVCDVER)","2026-04-21T11:05:30Z",NA
"CG0268","sdtm-ig-v2.0","CDISC","SDTM-IG","3.2;3.3;3.4","Medium","predicate","uniqueness-grouped","predicate","CORE-000154",NA,"TIG0167; TIG0470","",NA,NA,"true-duplicate","TSSEQ is unique for each distinct value of TSPARMCD","expand: """" all: - name: TSPARMCD operator: is_not_unique_relationship value: related_name: TSSEQ","2026-04-24T13:30:09Z",NA
"CG0269","sdtm-ig-v2.0","CDISC","SDTM-IG","3.2;3.3","Medium","predicate","value-conditional-in-set","predicate","CORE-000372",NA,"","",NA,NA,"true-duplicate","TSVAL in ('N','Y')","is_contained_by(TSPARMCD,ADDON) & is_not_contained_by(TSVAL,Y,N)","2026-04-21T16:25:34Z",NA
"CG0270","sdtm-ig-v2.0","CDISC","SDTM-IG","3.2;3.3;3.4","Medium","predicate","value-conditional-conforms-to-iso8601","predicate","CORE-000294",NA,"TIG0471","",NA,NA,"true-duplicate","TSVAL conforms to ISO 8601","all: - operator: is_contained_by name: TSPARMCD value: [AGEMAX] - operator: value_not_iso8601 name: TSVAL kind: date","2026-04-24T13:46:08Z","pending-Q24: needs op_value_not_iso8601"
"CG0271","sdtm-ig-v2.0","CDISC","SDTM-IG","3.2;3.3","Medium","predicate","value-conditional-in-set","predicate","CORE-000373",NA,"","",NA,NA,"true-duplicate","TSVAL in ('N','Y')","is_contained_by(TSPARMCD,RANDOM) & is_not_contained_by(TSVAL,Y,N)","2026-04-21T16:25:34Z",NA
"CG0272","sdtm-ig-v2.0","CDISC","SDTM-IG","3.2;3.3","Medium","predicate",NA,"predicate","CORE-000473",NA,"","",NA,NA,"core-is-better","TSVAL = null or 'HEALTHY SUBJECTS'",NA,"2026-04-24T22:05:17Z","narrative: condition depends on cross-record lookup (HLTSUBJI=Y check across TS rows -- no set-membership-across-rows op)"
"CG0273","sdtm-ig-v2.0","CDISC","SDTM-IG","3.2;3.3","Medium","predicate","value-not-null","predicate","CORE-000562",NA,"","",NA,"required","true-duplicate","TSVAL ^= null","empty(TSVAL)","2026-04-21T11:05:30Z",NA
"CG0275","sdtm-ig-v2.0","CDISC","SDTM-IG","3.2;3.3","Medium","predicate","value-not-null","predicate","CORE-000532",NA,"","",NA,"required","true-duplicate","TSVAL ^= null","empty(TSVAL)","2026-04-21T11:05:30Z",NA
"CG0276","sdtm-ig-v2.0","CDISC","SDTM-IG","3.2;3.3","Medium","predicate","value-not-null","predicate","CORE-000468",NA,"","",NA,"required","true-duplicate","TSVAL ^= null","empty(TSVAL)","2026-04-21T11:05:30Z",NA
"CG0277","sdtm-ig-v2.0","CDISC","SDTM-IG","3.2;3.3","Medium","predicate","value-not-null","predicate","CORE-000469",NA,"","",NA,"required","true-duplicate","TSVAL ^= null","empty(TSVAL)","2026-04-21T11:05:30Z",NA
"CG0278","sdtm-ig-v2.0","CDISC","SDTM-IG","3.2;3.3","Medium","predicate","value-not-null","predicate","CORE-000470",NA,"","",NA,"required","true-duplicate","TSVAL ^= null","empty(TSVAL)","2026-04-21T11:05:30Z",NA
"CG0279","sdtm-ig-v2.0","CDISC","SDTM-IG","3.2;3.3","Medium","predicate","value-not-null","predicate","CORE-000497",NA,"","",NA,"required","true-duplicate","TSVAL ^= null","empty(TSVAL)","2026-04-21T11:05:30Z",NA
"CG0280","sdtm-ig-v2.0","CDISC","SDTM-IG","3.2;3.3","Medium","predicate",NA,"predicate","CORE-000335",NA,"","",NA,NA,"core-is-better","TSVAL > 0 and TSVAL <= 1",NA,NA,"narrative: numeric range bound (0 < TSVAL <= 1) -- no range-numeric op yet"
"CG0281","sdtm-ig-v2.0","CDISC","SDTM-IG","3.2;3.3","Medium","predicate",NA,"predicate","CORE-000733",NA,"","",NA,NA,"core-is-better","TSPARMCD = RANDQT record is present",NA,"2026-04-24T22:05:17Z","narrative: requires study-design metadata (number of investigational treatments) not present in dataset rows"
"CG0282","sdtm-ig-v2.0","CDISC","SDTM-IG","3.2;3.3","Medium","predicate","value-conditional-in-set","predicate","CORE-000563",NA,"","",NA,NA,"true-duplicate","TSVAL in ('N','Y')","is_contained_by(TSPARMCD,ADAPT) & is_not_contained_by(TSVAL,Y,N)","2026-04-21T16:25:34Z",NA
"CG0283","sdtm-ig-v2.0","CDISC","SDTM-IG","3.2;3.3","Medium","predicate","value-conditional-conforms-to-iso8601","predicate","CORE-000504",NA,"","",NA,NA,"true-duplicate","TSVAL conforms to ISO 8601 date","all: - operator: is_contained_by name: TSPARMCD value: [DCUTDTC] - operator: value_not_iso8601 name: TSVAL kind: date","2026-04-24T13:46:08Z","pending-Q24: needs op_value_not_iso8601"
"CG0284","sdtm-ig-v2.0","CDISC","SDTM-IG","3.2;3.3","Medium","predicate","value-conditional-not-matches-regex","predicate","CORE-000587",NA,"","",NA,NA,"true-duplicate","TSVAL is integer and > 0","all: - operator: is_contained_by name: TSPARMCD value: ['NARMS'] - operator: not_matches_regex name: TSVAL value: '^[1-9][0-9]*$'","2026-04-24T12:23:56Z",NA
"CG0285","sdtm-ig-v2.0","CDISC","SDTM-IG","3.2;3.3","Medium","predicate","value-conditional-conforms-to-iso8601","predicate","CORE-000505",NA,"","",NA,NA,"true-duplicate","TSVAL conforms to ISO 8601 date","all: - operator: is_contained_by name: TSPARMCD value: [SSTDTC] - operator: value_not_iso8601 name: TSVAL kind: date","2026-04-24T13:46:08Z","pending-Q24: needs op_value_not_iso8601"
"CG0286","sdtm-ig-v2.0","CDISC","SDTM-IG","3.2;3.3","Medium","predicate","value-conditional-conforms-to-iso8601","predicate","CORE-000506",NA,"","",NA,NA,"true-duplicate","TSVAL conforms to ISO 8601 date","all: - operator: is_contained_by name: TSPARMCD value: [SENDTC] - operator: value_not_iso8601 name: TSVAL kind: date","2026-04-24T13:46:08Z","pending-Q24: needs op_value_not_iso8601"
"CG0287","sdtm-ig-v2.0","CDISC","SDTM-IG","3.2;3.3","High","predicate",NA,"predicate","CORE-000740",NA,"","",NA,NA,"core-is-better","A set of records exist with at least one record with TSPARMCD equal to each of the required values in the list of Trial Summary Codes in Appendix C1",NA,NA,"narrative: requires external reference list (Appendix C1 required TSPARMCD codes) not yet bundled"
"CG0288","sdtm-ig-v2.0","CDISC","SDTM-IG","3.2;3.3;3.4","Medium","predicate",NA,"predicate","CORE-001080",NA,"","",NA,NA,"core-is-better","TSVALCD = valid code in the version identified in TSVCDVER",NA,"2026-04-24T22:05:17Z","narrative: requires versioned CT cross-reference (TSVALCD valid in TSVCDVER-specific codelist) -- dynamic CT lookup not yet supported"
"CG0289","sdtm-ig-v2.0","CDISC","SDTM-IG","3.2;3.3;3.4","Medium","predicate","value-conditional-conforms-to-iso8601","predicate","CORE-000761",NA,"","",NA,NA,"true-duplicate","TSVCDVER = valid published version (date)","all: - operator: is_contained_by name: TSVCDREF value: [CDISC] - operator: value_not_iso8601 name: TSVCDVER kind: date","2026-04-24T13:46:08Z","pending-Q24: needs op_value_not_iso8601"
"CG0291","sdtm-ig-v2.0","CDISC","SDTM-IG","3.2;3.3;3.4","Low","predicate",NA,"predicate","CORE-000787",NA,"","",NA,NA,"core-is-better","TSVAL not populated with values or synonyms of values in the ISO 21090 null flavor codelist (or other terms that can be represented as null flavors)",NA,NA,"narrative: requires ISO 21090 null flavor codelist not included in CT bundle"
"CG0293","sdtm-ig-v2.0","CDISC","SDTM-IG","3.2;3.3;3.4","Medium","predicate","cross-lookup","predicate","CORE-000155",NA,"TIG0475","",NA,"lookup","true-duplicate","ARMCD in TA.ARMCD","is_not_contained_by(ARMCD,TA.ARMCD)","2026-04-21T12:20:10Z",NA
"CG0294","sdtm-ig-v2.0","CDISC","SDTM-IG","3.2;3.3;3.4","Medium","predicate","cross-lookup","predicate","CORE-000156",NA,"TIG0476","",NA,"lookup","true-duplicate","ARM in TA.ARM","is_not_contained_by(ARM,TA.ARM)","2026-04-21T12:20:10Z",NA
"CG0295","sdtm-ig-v2.0","CDISC","SDTM-IG","3.2;3.3;3.4","Medium","narrative",NA,"narrative",NA,NA,NA,NA,NA,NA,NA,"ARMCD = null",NA,NA,"narrative: condition requires protocol-level ARM independence determination -- not available in dataset"
"CG0296","sdtm-ig-v2.0","CDISC","SDTM-IG","3.2;3.3;3.4","Medium","narrative",NA,"narrative",NA,NA,NA,NA,NA,NA,NA,"ARM = null",NA,NA,"narrative: condition requires protocol-level ARM independence determination -- not available in dataset"
"CG0297","sdtm-ig-v2.0","CDISC","SDTM-IG","3.2;3.3;3.4","Medium","predicate","value-length-le","predicate","CORE-000157",NA,"TIG0479","",NA,NA,"true-duplicate","ARMCD value length <= 20","longer_than(ARMCD,20)","2026-04-21T13:31:48Z",NA
"CG0298","sdtm-ig-v2.0","CDISC","SDTM-IG","3.2;3.3;3.4","Medium","narrative",NA,"narrative",NA,NA,NA,NA,NA,NA,NA,"VISIT is described in protocol",NA,NA,"narrative: requires protocol document cross-reference -- not computable from data alone"
"CG0299","sdtm-ig-v2.0","CDISC","SDTM-IG","3.2;3.3;3.4","Medium","predicate","presence-forbidden","predicate","CORE-000003",NA,"","",NA,"find_prohibited","true-duplicate","TRLOC not present in dataset","exists(TRLOC)","2026-04-21T10:48:15Z",NA
"CG0300","sdtm-ig-v2.0","CDISC","SDTM-IG","3.2;3.3;3.4","Medium","predicate","presence-forbidden","predicate","CORE-000078",NA,"","",NA,"find_prohibited","true-duplicate","TRLAT not present in dataset","exists(TRLAT)","2026-04-21T10:48:15Z",NA
"CG0301","sdtm-ig-v2.0","CDISC","SDTM-IG","3.2;3.3;3.4","Medium","predicate","presence-forbidden","predicate","CORE-000077",NA,"","",NA,"find_prohibited","true-duplicate","TRDIR not present in dataset","exists(TRDIR)","2026-04-21T10:48:15Z",NA
"CG0302","sdtm-ig-v2.0","CDISC","SDTM-IG","3.2;3.3;3.4","Medium","predicate","presence-forbidden","predicate","CORE-000076",NA,"","",NA,"find_prohibited","true-duplicate","TRPORTOT not present in dataset","exists(TRPORTOT)","2026-04-21T10:48:15Z",NA
"CG0303","sdtm-ig-v2.0","CDISC","SDTM-IG","3.2","Medium","predicate",NA,"predicate","CORE-000398",NA,"","",NA,NA,"core-is-better","Variable Label = IG Label",NA,NA,NA
"CG0304","sdtm-ig-v2.0","CDISC","SDTM-IG","3.2;3.3;3.4","Medium","predicate","presence-forbidden","predicate","CORE-000075",NA,"TIG0481","",NA,"find_prohibited","true-duplicate","AEREASND not present in dataset","exists(AEREASND)","2026-04-21T10:48:15Z",NA
"CG0307","sdtm-ig-v2.0","CDISC","SDTM-IG","3.2;3.3;3.4","Medium","predicate","uniqueness-grouped","predicate","CORE-000179",NA,"TIG0482","FB0916",NA,NA,"true-duplicate","TSPARM and TSPARMCD have a one-to-one relationship","is_not_unique_relationship(TSPARM,TSPARMCD)","2026-04-21T16:25:34Z",NA
"CG0308","sdtm-ig-v2.0","CDISC","SDTM-IG","3.2;3.3;3.4","Medium","predicate","domain-code-format","predicate","CORE-000180",NA,"TIG0483","",NA,NA,"true-duplicate","DOMAIN value length = 2","operator: not_matches_regex name: DOMAIN value: ""^[A-Z]{2}$""","2026-04-24T14:01:30Z",NA
"CG0309","sdtm-ig-v2.0","CDISC","SDTM-IG","3.2;3.3;3.4","Medium","predicate","domain-code-format","predicate","CORE-000181",NA,"","",NA,NA,"true-duplicate","DOMAIN value length = 4","operator: not_matches_regex name: DOMAIN value: ""^[A-Z]{4}$""","2026-04-24T14:01:30Z",NA
"CG0310","sdtm-ig-v2.0","CDISC","SDTM-IG","3.2;3.3;3.4","Medium","predicate","metadata-var-name-length","predicate","CORE-000182",NA,"TIG0485; TIG0128","",NA,NA,"true-duplicate","Variable name length <= 8","any_var_name_exceeds_length(8)","2026-04-21T17:40:33Z",NA
"CG0311","sdtm-ig-v2.0","CDISC","SDTM-IG","3.2;3.3;3.4","Medium","predicate","metadata-var-label-length","predicate","CORE-000019",NA,"TIG0486; TIG0211","",NA,NA,"true-duplicate","Variable label length <= 40","any_var_label_exceeds_length(40)","2026-04-21T17:40:33Z",NA
"CG0312","sdtm-ig-v2.0","CDISC","SDTM-IG","3.2;3.3;3.4","Medium","narrative",NA,"narrative",NA,NA,NA,NA,NA,NA,NA,"DOMAIN not in reserved or modeled standard",NA,NA,NA
"CG0313","sdtm-ig-v2.0","CDISC","SDTM-IG","3.2","Medium","predicate",NA,"predicate","CORE-000585",NA,"","",NA,NA,"core-is-better","STUDYID, USUBJID or POOLID, DOMAIN, and --SEQ exist",NA,NA,NA
"CG0314","sdtm-ig-v2.0","CDISC","SDTM-IG","3.2;3.3;3.4","Medium","predicate",NA,"predicate","CORE-000783",NA,"","",NA,NA,"core-is-better","Value of SUPP--.QNAM ^= any variable name defined in the corresponding SDTM version",NA,"2026-04-24T22:05:17Z",NA
"CG0318","sdtm-ig-v2.0","CDISC","SDTM-IG","3.2;3.3;3.4","Medium","predicate","submission-conditional-dataset-required","predicate","CORE-000183",NA,"TIG0489","",NA,NA,"true-duplicate","PC dataset present in study","all: - operator: study_metadata_is key: collected_domains value: PC - operator: not_exists name: PC","2026-04-24T10:02:11Z",NA
"CG0320","sdtm-ig-v2.0","CDISC","SDTM-IG","3.2;3.3;3.4","Medium","narrative",NA,"narrative",NA,NA,NA,NA,NA,NA,NA,"--TESTCD present in custom findings dataset",NA,NA,NA
"CG0321","sdtm-ig-v2.0","CDISC","SDTM-IG","3.2;3.3;3.4","Medium","narrative",NA,"narrative",NA,NA,NA,NA,NA,NA,NA,"Custom domain is based on one of the observation classes",NA,NA,NA
"CG0322","sdtm-ig-v2.0","CDISC","SDTM-IG","3.2;3.3;3.4","Medium","predicate","element-value-in-ref","predicate",NA,NA,NA,NA,NA,NA,NA,"ELEMENT value does not refer to any specific ARM","operator: is_not_unique_relationship name: ETCD value: related_name: ""%ref_col%""","2026-04-24T16:22:48Z",NA
"CG0323","sdtm-ig-v2.0","CDISC","SDTM-IG","3.2;3.3;3.4","Medium","predicate","element-value-in-ref","predicate",NA,NA,NA,NA,NA,NA,NA,"ELEMENT value does not refer to any specific EPOCH","operator: is_not_unique_relationship name: ETCD value: related_name: ""%ref_col%""","2026-04-24T16:22:48Z",NA
"CG0324","sdtm-ig-v2.0","CDISC","SDTM-IG","3.2;3.3;3.4","Medium","narrative",NA,"narrative",NA,NA,NA,NA,NA,NA,NA,"TEENRL value does not refer to any specific ARM",NA,NA,NA
"CG0325","sdtm-ig-v2.0","CDISC","SDTM-IG","3.2;3.3;3.4","Medium","predicate","epoch-unique-per-conceptual-period","predicate","CORE-000580",NA,"TIG0495","",NA,NA,"true-duplicate","The combination of ELEMENT, TESTRL, TEENRL, and TEDUR is unique for each ETCD","operator: is_not_unique_relationship name: ""ETCD"" value: related_name: ""ELEMENT""","2026-04-24T16:22:48Z",NA
"CG0328","sdtm-ig-v2.0","CDISC","SDTM-IG","3.2;3.3;3.4","Medium","predicate","value-not-null","predicate","CORE-000027",NA,"TIG0496; TIG0497; TIG0141","",NA,"required","true-duplicate","TEENRL ^= null","empty(TEENRL)","2026-04-21T11:05:30Z",NA
"CG0329","sdtm-ig-v2.0","CDISC","SDTM-IG","3.2;3.3;3.4","Medium","predicate","value-not-null","predicate","CORE-000027",NA,"TIG0496; TIG0497; TIG0141","",NA,"required","true-duplicate","TEDUR ^= null","empty(TEDUR)","2026-04-21T11:05:30Z",NA
"CG0330","sdtm-ig-v2.0","CDISC","SDTM-IG","3.2;3.3","Medium","predicate",NA,"predicate","CORE-000852",NA,"TIG0698","",NA,NA,"core-is-better","Variables are ordered with Identifiers first, followed by the Topic, Qualifier, and Timing variables. Within each role, variables are ordered as shown in SDTM: ",NA,"2026-04-24T22:05:17Z",NA
"CG0332","sdtm-ig-v2.0","CDISC","SDTM-IG","3.2;3.3;3.4","High","predicate",NA,"predicate","CORE-000539",NA,"TIG0498","",NA,NA,"core-is-better","The first two characters of the dataset name must equal a domain that is present in the study",NA,"2026-04-24T22:05:17Z",NA
"CG0333","sdtm-ig-v2.0","CDISC","SDTM-IG","3.2;3.3;3.4","Medium","predicate",NA,"predicate","CORE-000540",NA,"TIG0499","",NA,NA,"core-is-better","The characters of the dataset name after 'FA' equal a domain that present in the study",NA,"2026-04-24T22:05:17Z",NA
"CG0334","sdtm-ig-v2.0","CDISC","SDTM-IG","3.2;3.3;3.4","Medium","predicate",NA,"predicate","CORE-000538",NA,"TIG0500","",NA,NA,"core-is-better","Value of RDOMAIN equals characters 5 and 6 of the dataset name",NA,"2026-04-24T22:05:17Z",NA
"CG0336","sdtm-ig-v2.0","CDISC","SDTM-IG","3.2;3.3;3.4","Medium","predicate",NA,"predicate","CORE-000272",NA,"TIG0501","",NA,NA,"core-is-better","--CAT ^= Domain Name",NA,"2026-04-24T22:05:17Z",NA
"CG0337","sdtm-ig-v2.0","CDISC","SDTM-IG","3.2;3.3;3.4","Medium","predicate","value-not-equal-column","predicate","CORE-000196",NA,"TIG0502","",NA,NA,"true-duplicate","--CAT ^= --DECOD","equal_to(--CAT,--DECOD,FALSE)","2026-04-21T15:03:22Z",NA
"CG0338","sdtm-ig-v2.0","CDISC","SDTM-IG","3.2;3.3;3.4","Medium","predicate","value-not-equal-column","predicate","CORE-000195",NA,"TIG0503","",NA,NA,"true-duplicate","--SCAT ^= --DECOD","equal_to(--SCAT,--DECOD,FALSE)","2026-04-21T15:03:22Z",NA
"CG0339","sdtm-ig-v2.0","CDISC","SDTM-IG","3.2;3.3;3.4","Medium","predicate","value-not-equal-column","predicate","CORE-000197",NA,"TIG0504","",NA,NA,"true-duplicate","--CAT ^= --BODSYS","equal_to(--CAT,--BODSYS,FALSE)","2026-04-21T15:03:22Z",NA
"CG0340","sdtm-ig-v2.0","CDISC","SDTM-IG","3.2;3.3;3.4","Medium","predicate","value-not-equal-column","predicate","CORE-000198",NA,"TIG0505","",NA,NA,"true-duplicate","--SCAT ^= --BODSYS","equal_to(--SCAT,--BODSYS,FALSE)","2026-04-21T15:03:22Z",NA
"CG0341","sdtm-ig-v2.0","CDISC","SDTM-IG","3.2;3.3;3.4","Medium","predicate",NA,"predicate","CORE-000159",NA,"TIG0506","",NA,NA,"core-is-better","--TESTCD ^= 'OTHER'",NA,NA,NA
"CG0342","sdtm-ig-v2.0","CDISC","SDTM-IG","3.2;3.3;3.4","Medium","predicate",NA,"predicate","CORE-000160",NA,"TIG0507","",NA,NA,"core-is-better","--TRT ^= 'OTHER'",NA,NA,NA
"CG0343","sdtm-ig-v2.0","CDISC","SDTM-IG","3.2;3.3;3.4","Medium","predicate",NA,"predicate","CORE-000161",NA,"TIG0508","",NA,NA,"core-is-better","--TERM ^= 'OTHER'",NA,NA,NA
"CG0344","sdtm-ig-v2.0","CDISC","SDTM-IG","3.2;3.3;3.4","Medium","predicate",NA,"predicate","CORE-000162",NA,"TIG0509","",NA,NA,"core-is-better","--TESTCD ^= 'MULTIPLE'",NA,NA,NA
"CG0345","sdtm-ig-v2.0","CDISC","SDTM-IG","3.2;3.3;3.4","Medium","predicate",NA,"predicate","CORE-000163",NA,"TIG0510","",NA,NA,"core-is-better","--TRT ^= 'MULTIPLE'",NA,NA,NA
"CG0346","sdtm-ig-v2.0","CDISC","SDTM-IG","3.2;3.3;3.4","Medium","predicate",NA,"predicate","CORE-000164",NA,"TIG0511","",NA,NA,"core-is-better","--TERM ^= 'MULTIPLE'",NA,NA,NA
"CG0347","sdtm-ig-v2.0","CDISC","SDTM-IG","3.2;3.3;3.4","Medium","narrative",NA,"narrative",NA,NA,NA,NA,NA,NA,NA,"--ORRES ^ = 'MULTIPLE'",NA,NA,NA
"CG0348","sdtm-ig-v2.0","CDISC","SDTM-IG","3.2;3.3;3.4","Medium","predicate","value-not-null","predicate","CORE-000200",NA,"TIG0513","",NA,"required","true-duplicate","--ORRES ^= null","empty(--ORRES)","2026-04-21T11:05:30Z",NA
"CG0349","sdtm-ig-v2.0","CDISC","SDTM-IG","3.2;3.3;3.4","Medium","predicate",NA,"predicate","CORE-000376",NA,"TIG0514","",NA,NA,"core-is-better","First 2 characters of the Variable Name = the 2-character domain code",NA,"2026-04-24T22:05:17Z",NA
"CG0350","sdtm-ig-v2.0","CDISC","SDTM-IG","3.2;3.3;3.4","Medium","predicate",NA,"predicate","CORE-000219",NA,"TIG0515","",NA,NA,"core-is-better","--SCAT ^= Domain Name",NA,"2026-04-24T22:05:17Z",NA
"CG0351","sdtm-ig-v2.0","CDISC","SDTM-IG","3.2;3.3;3.4","Medium","predicate",NA,"predicate","CORE-000550",NA,"TIG0298","",NA,NA,"core-is-better","Variables not in Model List of Allowed Variables for Observation Class are in SUPPQUAL",NA,"2026-04-24T22:05:17Z",NA
"CG0352","sdtm-ig-v2.0","CDISC","SDTM-IG","3.2;3.3;3.4","Medium","predicate","presence-forbidden","predicate","CORE-000226",NA,"","",NA,"find_prohibited","true-duplicate","--DTHREL not present in dataset","exists(--DTHREL)","2026-04-21T10:48:15Z",NA
"CG0353","sdtm-ig-v2.0","CDISC","SDTM-IG","3.2;3.3;3.4","Medium","predicate","presence-forbidden","predicate","CORE-000242",NA,"TIG0518","",NA,"find_prohibited","true-duplicate","--EXCLFL not present in dataset","exists(--EXCLFL)","2026-04-21T10:48:15Z",NA
"CG0354","sdtm-ig-v2.0","CDISC","SDTM-IG","3.2;3.3;3.4","Medium","predicate","presence-forbidden","predicate","CORE-000243",NA,"TIG0519","",NA,"find_prohibited","true-duplicate","--REASEX not present in dataset","exists(--REASEX)","2026-04-21T10:48:15Z",NA
"CG0355","sdtm-ig-v2.0","CDISC","SDTM-IG","3.2;3.3;3.4","Medium","predicate","presence-forbidden","predicate","CORE-000244",NA,"TIG0520","",NA,"find_prohibited","true-duplicate","--DETECT not present in dataset","exists(--DETECT)","2026-04-21T10:48:15Z",NA
"CG0356","sdtm-ig-v2.0","CDISC","SDTM-IG","3.2;3.3;3.4","Medium","predicate","presence-forbidden","predicate","CORE-000174",NA,"","",NA,"find_prohibited","true-duplicate","SPECIES not present in dataset","exists(SPECIES)","2026-04-21T10:48:15Z",NA
"CG0357","sdtm-ig-v2.0","CDISC","SDTM-IG","3.2;3.3;3.4","Medium","predicate","presence-forbidden","predicate","CORE-000175",NA,"","",NA,"find_prohibited","true-duplicate","STRAIN not present in dataset","exists(STRAIN)","2026-04-21T10:48:15Z",NA
"CG0358","sdtm-ig-v2.0","CDISC","SDTM-IG","3.2;3.3;3.4","Medium","predicate","presence-forbidden","predicate","CORE-000176",NA,"","",NA,"find_prohibited","true-duplicate","SBSTRAIN not present in dataset","exists(SBSTRAIN)","2026-04-21T10:48:15Z",NA
"CG0359","sdtm-ig-v2.0","CDISC","SDTM-IG","3.2;3.3;3.4","Medium","predicate",NA,"predicate","CORE-000594",NA,"TIG0524; TIG0205","",NA,NA,"core-is-better","Variable labels are in title case",NA,NA,NA
"CG0361","sdtm-ig-v2.0","CDISC","SDTM-IG","3.2;3.3;3.4","Medium","predicate","value-conditional-null-populated","predicate","CORE-000229",NA,"","",NA,NA,"true-duplicate","POOLID = null","non_empty(USUBJID) & non_empty(POOLID)","2026-04-21T13:51:48Z",NA
"CG0362","sdtm-ig-v2.0","CDISC","SDTM-IG","3.2;3.3;3.4","Medium","predicate","value-conditional-null-populated","predicate","CORE-000230",NA,"","",NA,NA,"true-duplicate","USUBJID = null","non_empty(POOLID) & non_empty(USUBJID)","2026-04-21T13:51:48Z",NA
"CG0363","sdtm-ig-v2.0","CDISC","SDTM-IG","3.2;3.3;3.4","Medium","predicate","value-conditional-not-equal-column","predicate","CORE-000231",NA,"","",NA,NA,"true-duplicate","RSUBJID ^= USUBJID","non_empty(RSUBJID) & equal_to(RSUBJID,USUBJID,FALSE)","2026-04-21T15:03:22Z",NA
"CG0364","sdtm-ig-v2.0","CDISC","SDTM-IG","3.2;3.3;3.4","Medium","predicate","value-conditional-not-equal-column","predicate","CORE-000232",NA,"","",NA,NA,"true-duplicate","RSUBJID ^= POOLID","non_empty(RSUBJID) & equal_to(RSUBJID,POOLID,FALSE)","2026-04-21T15:03:22Z",NA
"CG0365","sdtm-ig-v2.0","CDISC","SDTM-IG","3.2;3.3;3.4","Medium","predicate",NA,"predicate","CORE-000233",NA,"","",NA,NA,"core-is-better","RDEVID = null",NA,NA,"AP-scoped; defer until AP class in taxonomy (similar to CG0156/157/158)"
"CG0366","sdtm-ig-v2.0","CDISC","SDTM-IG","3.2;3.3;3.4","Medium","predicate",NA,"predicate","CORE-000234",NA,"","",NA,NA,"core-is-better","RSUBJID = null",NA,NA,"AP-scoped; defer until AP class in taxonomy (similar to CG0156/157/158)"
"CG0367","sdtm-ig-v2.0","CDISC","SDTM-IG","3.2;3.3;3.4","Medium","predicate","value-equals-cross-dataset-col","predicate","CORE-000235",NA,"","",NA,NA,"true-duplicate","RSUBJID = DM.USUBJID","all: - operator: differs_by_key name: ""RSUBJID"" reference_dataset: ""DM"" reference_column: ""USUBJID"" key: ""USUBJID""","2026-04-24T09:20:55Z",NA
"CG0368","sdtm-ig-v2.0","CDISC","SDTM-IG","3.2;3.3;3.4","Medium","predicate","submission-dataset-required","predicate","CORE-000581",NA,"TIG0532","",NA,NA,"true-duplicate","DM dataset present in study","operator: not_exists name: %dataset%","2026-04-24T10:02:11Z",NA
"CG0369","sdtm-ig-v2.0","CDISC","SDTM-IG","3.2;3.3;3.4","Medium","predicate",NA,"predicate","CORE-000502",NA,"TIG0533","",NA,NA,"core-is-better","RDOMAIN is dataset in study",NA,"2026-04-24T22:05:17Z",NA
"CG0370","sdtm-ig-v2.0","CDISC","SDTM-IG","3.2;3.3;3.4","Medium","predicate",NA,"predicate","CORE-000712",NA,"TIG0534","",NA,NA,"core-is-better","IDVAR is variable in domain = RDOMAIN",NA,"2026-04-24T22:05:17Z",NA
"CG0371","sdtm-ig-v2.0","CDISC","SDTM-IG","3.2;3.3;3.4","Medium","predicate",NA,"predicate","CORE-000206",NA,"TIG0535; TIG0058","",NA,NA,"core-is-better","IDVARVAL = value of variable = IDVAR in domain = RDOMAIN",NA,NA,NA
"CG0372","sdtm-ig-v2.0","CDISC","SDTM-IG","3.2;3.3;3.4","Low","predicate",NA,"predicate","CORE-000220",NA,"TIG0536","",NA,NA,"core-is-better","--TESTCD <= 8 chars and contains only letters, numbers, and underscores and can not start with a number",NA,NA,NA
"CG0373","sdtm-ig-v2.0","CDISC","SDTM-IG","3.2;3.3;3.4","Medium","predicate","submission-domains-from-ref-column","predicate","CORE-000457",NA,"TIG0537","",NA,NA,"true-duplicate","Dataset present in study with DOMAIN = SUPP--.RDOMAIN","operator: ref_column_domains_exist reference_column: %reference_column%","2026-04-24T10:02:11Z",NA
"CG0374","sdtm-ig-v2.0","CDISC","SDTM-IG","3.2;3.3;3.4","Medium","predicate","submission-domains-from-ref-column","predicate","CORE-000384",NA,"TIG0538","",NA,NA,"true-duplicate","Dataset present in study with DOMAIN = RELREC.RDOMAIN","operator: ref_column_domains_exist reference_column: %reference_column%","2026-04-24T10:02:11Z",NA
"CG0375","sdtm-ig-v2.0","CDISC","SDTM-IG","3.2;3.3;3.4","Medium","predicate","value-var-name-in-ref-dataset","predicate",NA,NA,NA,NA,NA,NA,NA,"TDANCVAR = date variable name in ADSL","value_not_var_in_ref_dataset(TDANCVAR,ADSL,(DT|DTC|DTM))","2026-04-21T17:50:20Z",NA
"CG0376","sdtm-ig-v2.0","CDISC","SDTM-IG","3.2;3.3;3.4","Medium","predicate","value-conforms-to-iso8601","predicate","CORE-000779",NA,"","",NA,NA,"true-duplicate","TDSTOFF = 0 or positive value in ISO 8601 Duration format","operator: value_not_iso8601 name: TDSTOFF kind: duration","2026-04-24T13:46:05Z",NA
"CG0377","sdtm-ig-v2.0","CDISC","SDTM-IG","3.2;3.3;3.4","Medium","predicate","value-in-dictionary","predicate",NA,NA,NA,NA,NA,NA,NA,"--LLT = MedDRA lowest level TERM","operator: value_in_dictionary name: --LLT dict_name: meddra field: llt","2026-04-24T16:36:13Z",NA
"CG0378","sdtm-ig-v2.0","CDISC","SDTM-IG","3.2;3.3;3.4","Medium","predicate","value-in-dictionary","predicate",NA,NA,NA,NA,NA,NA,NA,"--LLTCD = MedDRA lowest level code","operator: value_in_dictionary name: --LLTCD dict_name: meddra field: llt_code","2026-04-24T16:36:13Z",NA
"CG0379","sdtm-ig-v2.0","CDISC","SDTM-IG","3.2;3.3;3.4","Medium","predicate","value-in-dictionary","predicate",NA,NA,NA,NA,NA,NA,NA,"--DECOD = MedDRA preferred TERM","operator: value_in_dictionary name: --DECOD dict_name: meddra field: pt","2026-04-24T16:36:13Z",NA
"CG0380","sdtm-ig-v2.0","CDISC","SDTM-IG","3.2;3.3;3.4","Medium","predicate","value-in-dictionary","predicate",NA,NA,NA,NA,NA,NA,NA,"--PTCD = MedDRA preferred TERM code","operator: value_in_dictionary name: --PTCD dict_name: meddra field: pt_code","2026-04-24T16:36:13Z",NA
"CG0381","sdtm-ig-v2.0","CDISC","SDTM-IG","3.2;3.3;3.4","Medium","predicate","value-in-dictionary","predicate",NA,NA,NA,NA,NA,NA,NA,"--HLT = MedDRA high level TERM","operator: value_in_dictionary name: --HLT dict_name: meddra field: hlt","2026-04-24T16:36:13Z",NA
"CG0382","sdtm-ig-v2.0","CDISC","SDTM-IG","3.2;3.3;3.4","Medium","predicate","value-in-dictionary","predicate",NA,NA,NA,NA,NA,NA,NA,"--HLTCD = MedDRA high level TERM code","operator: value_in_dictionary name: --HLTCD dict_name: meddra field: hlt_code","2026-04-24T16:36:13Z",NA
"CG0383","sdtm-ig-v2.0","CDISC","SDTM-IG","3.2;3.3;3.4","Medium","predicate","value-in-dictionary","predicate",NA,NA,NA,NA,NA,NA,NA,"--HLGT = MedDRA high level group TERM","operator: value_in_dictionary name: --HLGT dict_name: meddra field: hlgt","2026-04-24T16:36:13Z",NA
"CG0384","sdtm-ig-v2.0","CDISC","SDTM-IG","3.2;3.3;3.4","Medium","predicate","value-in-dictionary","predicate",NA,NA,NA,NA,NA,NA,NA,"--HLGTCD = MedDRA high level group TERM code","operator: value_in_dictionary name: --HLGTCD dict_name: meddra field: hlgt_code","2026-04-24T16:36:13Z",NA
"CG0385","sdtm-ig-v2.0","CDISC","SDTM-IG","3.2;3.3;3.4","Medium","predicate","value-in-dictionary","predicate",NA,NA,NA,NA,NA,NA,NA,"--BODSYS = MedDRA system organ class","operator: value_in_dictionary name: --BODSYS dict_name: meddra field: soc","2026-04-24T16:36:13Z",NA
"CG0386","sdtm-ig-v2.0","CDISC","SDTM-IG","3.2;3.3;3.4","Medium","predicate","value-in-dictionary","predicate",NA,NA,NA,NA,NA,NA,NA,"--BDSYCD = MedDRA system organ class code","operator: value_in_dictionary name: --BDSYCD dict_name: meddra field: soc_code","2026-04-24T16:36:13Z",NA
"CG0387","sdtm-ig-v2.0","CDISC","SDTM-IG","3.2;3.3;3.4","Medium","predicate",NA,"predicate","CORE-000087",NA,"TIG0549","",NA,NA,"core-is-better","--SER in ('Y','N')",NA,NA,NA
"CG0388","sdtm-ig-v2.0","CDISC","SDTM-IG","3.2;3.3;3.4","Medium","predicate",NA,"predicate","CORE-000123",NA,"TIG0550","",NA,NA,"core-is-better","--SCAN in ('Y','N')",NA,NA,NA
"CG0389","sdtm-ig-v2.0","CDISC","SDTM-IG","3.2;3.3;3.4","Medium","predicate",NA,"predicate","CORE-000124",NA,"TIG0551","",NA,NA,"core-is-better","--SCONG in ('Y','N')",NA,NA,NA
"CG0390","sdtm-ig-v2.0","CDISC","SDTM-IG","3.2;3.3;3.4","Medium","predicate",NA,"predicate","CORE-000125",NA,"TIG0552","",NA,NA,"core-is-better","--SDISAB in ('Y','N')",NA,NA,NA
"CG0391","sdtm-ig-v2.0","CDISC","SDTM-IG","3.2;3.3;3.4","Medium","predicate",NA,"predicate","CORE-000126",NA,"TIG0553","",NA,NA,"core-is-better","--SDTH in ('Y','N')",NA,NA,NA
"CG0392","sdtm-ig-v2.0","CDISC","SDTM-IG","3.2;3.3;3.4","Medium","predicate",NA,"predicate","CORE-000127",NA,"TIG0554","",NA,NA,"core-is-better","--SHOSP in ('Y','N')",NA,NA,NA
"CG0393","sdtm-ig-v2.0","CDISC","SDTM-IG","3.2;3.3;3.4","Medium","predicate",NA,"predicate","CORE-000128",NA,"TIG0555","",NA,NA,"core-is-better","--SLIFE in ('Y','N')",NA,NA,NA
"CG0394","sdtm-ig-v2.0","CDISC","SDTM-IG","3.2;3.3;3.4","Medium","predicate",NA,"predicate","CORE-000129",NA,"TIG0556","",NA,NA,"core-is-better","--SOD in ('Y','N')",NA,NA,NA
"CG0395","sdtm-ig-v2.0","CDISC","SDTM-IG","3.2;3.3;3.4","Medium","predicate",NA,"predicate","CORE-000130",NA,"TIG0557","",NA,NA,"core-is-better","--SMIE in ('Y','N')",NA,NA,NA
"CG0396","sdtm-ig-v2.0","CDISC","SDTM-IG","3.2;3.3;3.4","Medium","predicate",NA,"predicate","CORE-000131",NA,"TIG0558","",NA,NA,"core-is-better","--CONTRT in ('Y','N')",NA,NA,NA
"CG0397","sdtm-ig-v2.0","CDISC","SDTM-IG","3.2;3.3;3.4","Medium","predicate","value-not-null","predicate","CORE-000021",NA,"TIG0559","",NA,"required","true-duplicate","--STRESC ^= null","empty(--STRESC)","2026-04-21T11:05:30Z",NA
"CG0398","sdtm-ig-v2.0","CDISC","SDTM-IG","3.2","Medium","predicate","uniqueness-filtered-composite-key","predicate","CORE-000586",NA,"","",NA,NA,"true-duplicate","At most one record per subject per epoch","all: - operator: is_contained_by name: DSCAT value: ['DISPOSITION EVENT'] - operator: is_not_unique_set name:   - USUBJID
  - EPOCH","2026-04-24T12:23:59Z",NA
"CG0399","sdtm-ig-v2.0","CDISC","SDTM-IG","3.2;3.3;3.4","Medium","predicate","unit-variable-required-when-var-populated","predicate",NA,NA,NA,NA,NA,NA,NA,"--ULOQ is expressed using the units in --STRESU","all: - operator: non_empty name: --ULOQ - operator: matches_regex name: --ULOQ value: ""^[-+]?[0-9]*\\.?[0-9]+$"" - operator: empty name: --STRESU","2026-04-24T09:34:59Z",NA
"CG0400","sdtm-ig-v2.0","CDISC","SDTM-IG","3.2;3.3;3.4","Medium","predicate","loinc-code-valid","predicate",NA,NA,NA,NA,NA,NA,NA,"--LOINC = valid code in the version of the LOINC dictionary specified in define.xml","operator: value_in_dictionary name: --LOINC dict_name: loinc field: loinc_num","2026-04-24T00:00:00Z",NA
"CG0404","sdtm-ig-v2.0","CDISC","SDTM-IG","3.2;3.3;3.4","Medium","predicate",NA,"predicate","CORE-000118",NA,"TIG0562","",NA,NA,"core-is-better","--STAT present in dataset",NA,NA,NA
"CG0406","sdtm-ig-v2.0","CDISC","SDTM-IG","3.2;3.3;3.4","Medium","predicate",NA,"predicate","CORE-000199",NA,"TIG0563","",NA,NA,"core-is-better","--TEST length <= 40",NA,NA,NA
"CG0407","sdtm-ig-v2.0","CDISC","SDTM-IG","3.2;3.3;3.4","Medium","predicate",NA,"predicate","CORE-000739",NA,"","",NA,NA,"core-is-better","EX present in study",NA,NA,NA
"CG0408","sdtm-ig-v2.0","CDISC","SDTM-IG","3.2;3.3;3.4","Medium","predicate",NA,"predicate","CORE-000579",NA,"","",NA,NA,"core-is-better","Dataset > 0 records",NA,"2026-04-24T22:05:17Z",NA
"CG0409","sdtm-ig-v2.0","CDISC","SDTM-IG","3.2;3.3;3.4","Medium","predicate","value-equals-cross-dataset-col","predicate","CORE-000172",NA,"TIG0168; TIG0565","",NA,NA,"true-duplicate","STUDYID = DM.STUDYID","all: - operator: differs_by_key name: ""STUDYID"" reference_dataset: ""DM"" reference_column: ""STUDYID"" key: ""USUBJID""","2026-04-24T09:20:55Z",NA
"CG0410","sdtm-ig-v2.0","CDISC","SDTM-IG","3.2;3.3;3.4","Medium","predicate","uniqueness-composite-key","predicate","CORE-000204",NA,"TIG0566","",NA,NA,"true-duplicate","VISITNUM identifies unique record within subject","is_not_unique_set(STUDYID,USUBJID,VISITNUM)","2026-04-21T16:24:26Z",NA
"CG0411","sdtm-ig-v2.0","CDISC","SDTM-IG","3.2;3.3;3.4","Medium","predicate",NA,"predicate","CORE-000203",NA,"TIG0567","",NA,NA,"core-is-better","IDVAR, IDVARVAL, and QNAM a unique combination per parent subject record",NA,NA,NA
"CG0412","sdtm-ig-v2.0","CDISC","SDTM-IG","3.2","Medium","predicate",NA,"predicate","CORE-000515",NA,"","",NA,NA,"core-is-better","Subject records > 0",NA,"2026-04-24T22:05:17Z",NA
"CG0413","sdtm-ig-v2.0","CDISC","SDTM-IG","3.2;3.3;3.4","Medium","predicate",NA,"predicate","CORE-000598",NA,"TIG0568; TIG0037","",NA,NA,"core-is-better","Dataset name begins with DOMAIN value",NA,NA,NA
"CG0414","sdtm-ig-v2.0","CDISC","SDTM-IG","3.2;3.3;3.4","Medium","predicate","value-equals-cross-dataset-col","predicate","CORE-000173",NA,"TIG0569","",NA,NA,"true-duplicate","ETCD = TE.ETCD","all: - operator: differs_by_key name: ""ETCD"" reference_dataset: ""TE"" reference_column: ""ETCD"" key: ""ETCD""","2026-04-24T09:20:55Z",NA
"CG0415","sdtm-ig-v2.0","CDISC","SDTM-IG","3.2;3.3;3.4","Medium","narrative",NA,"narrative",NA,NA,NA,NA,NA,NA,NA,"ARMCD is a valid planned arm code",NA,NA,NA
"CG0416","sdtm-ig-v2.0","CDISC","SDTM-IG","3.2;3.3;3.4","Medium","predicate","value-length-le","predicate","CORE-000222",NA,"TIG0571","",NA,NA,"true-duplicate","QLABEL value length <= 40","longer_than(QLABEL,40)","2026-04-21T13:31:48Z",NA
"CG0417","sdtm-ig-v2.0","CDISC","SDTM-IG","3.2;3.3;3.4","Medium","predicate",NA,"predicate","CORE-000221",NA,"TIG0572","",NA,NA,"core-is-better","QNAM value length <=8 and cannot start with a number and cannot contain characters other than letters in upper case, numbers, or underscores",NA,NA,NA
"CG0418","sdtm-ig-v2.0","CDISC","SDTM-IG","3.2;3.3;3.4","Medium","narrative",NA,"narrative",NA,NA,NA,NA,NA,NA,NA,"TAETORD order of elements match order in TA within ARM of the Subject",NA,NA,NA
"CG0419","sdtm-ig-v2.0","CDISC","SDTM-IG","3.2;3.3;3.4","Medium","predicate","relrec-idvar-seq","predicate","CORE-000202",NA,"TIG0574","",NA,NA,"true-duplicate","RELTYPE = null","all: - operator: matches_regex name: IDVAR value: '.*SEQ' - operator: empty name: RELTYPE","2026-04-24T16:33:15Z",NA
"CG0420","sdtm-ig-v2.0","CDISC","SDTM-IG","3.2;3.3;3.4","Medium","predicate","value-conditional-null-eq","predicate","CORE-000240",NA,"TIG0575","",NA,NA,"true-duplicate","--STRF = null","equal_to(--OCCUR,N) & non_empty(--STRF)","2026-04-21T15:23:46Z",NA
"CG0421","sdtm-ig-v2.0","CDISC","SDTM-IG","3.2;3.3;3.4","Medium","predicate","value-conditional-null-eq","predicate","CORE-000241",NA,"TIG0576","",NA,NA,"true-duplicate","--ENRF = null","equal_to(--OCCUR,N) & non_empty(--ENRF)","2026-04-21T15:23:46Z",NA
"CG0422","sdtm-ig-v2.0","CDISC","SDTM-IG","3.2;3.3;3.4","Medium","predicate","value-conditional-null-populated","predicate","CORE-000099",NA,"TIG0577","",NA,NA,"true-duplicate","--STAT = null","non_empty(--ORRES) & non_empty(--STAT)","2026-04-21T13:51:48Z",NA
"CG0423","sdtm-ig-v2.0","CDISC","SDTM-IG","3.2;3.3;3.4","Medium","predicate","value-not-null","predicate","CORE-000100",NA,"TIG0578","",NA,"required","true-duplicate","--TRTV ^= null","empty(--TRTV)","2026-04-21T11:05:30Z",NA
"CG0425","sdtm-ig-v2.0","CDISC","SDTM-IG","3.2;3.3;3.4","Medium","predicate","value-not-null","predicate",NA,NA,NA,NA,NA,"required",NA,"--STRESU ^= null","empty(--STRESU)","2026-04-21T11:05:30Z",NA
"CG0426","sdtm-ig-v2.0","CDISC","SDTM-IG","3.2;3.3;3.4","Medium","predicate","value-conditional-populated-required","predicate","CORE-000133",NA,"TIG0580","",NA,NA,"true-duplicate","--STRESC (in standard units) ^= null","non_empty(--STRESU) & empty(--STRESC)","2026-04-21T15:55:17Z",NA
"CG0427","sdtm-ig-v2.0","CDISC","SDTM-IG","3.2;3.3;3.4","Medium","predicate","value-not-null","predicate","CORE-000101",NA,"TIG0581","",NA,"required","true-duplicate","--STRESC ^= null","empty(--STRESC)","2026-04-21T11:05:30Z",NA
"CG0428","sdtm-ig-v2.0","CDISC","SDTM-IG","3.2;3.3;3.4","Medium","predicate","value-not-null","predicate","CORE-000102",NA,"TIG0582","",NA,"required","true-duplicate","--TOXGR ^= null","empty(--TOXGR)","2026-04-21T11:05:30Z",NA
"CG0429","sdtm-ig-v2.0","CDISC","SDTM-IG","3.2;3.3;3.4","Medium","predicate","value-not-null","predicate","CORE-000103",NA,"TIG0583","",NA,"required","true-duplicate","--CAT ^= null","empty(--CAT)","2026-04-21T11:05:30Z",NA
"CG0430","sdtm-ig-v2.0","CDISC","SDTM-IG","3.2;3.3;3.4","Medium","predicate","presence-pair","predicate","CORE-000104",NA,"TIG0584","",NA,NA,"true-duplicate","--CAT present in dataset","exists(--SCAT) & not_exists(--CAT)","2026-04-21T14:45:10Z",NA
"CG0431","sdtm-ig-v2.0","CDISC","SDTM-IG","3.2;3.3;3.4","Medium","narrative",NA,"narrative",NA,NA,NA,NA,NA,NA,NA,"Variable value ^= null",NA,NA,NA
"CG0432","sdtm-ig-v2.0","CDISC","SDTM-IG","3.2;3.3","Medium","predicate","value-not-null","predicate","CORE-000452",NA,"","",NA,"required","true-duplicate","AGEU ^= null","empty(AGEU)","2026-04-21T11:05:30Z",NA
"CG0433","sdtm-ig-v2.0","CDISC","SDTM-IG","3.2;3.3","Medium","predicate","value-not-null","predicate","CORE-000453",NA,"","",NA,"required","true-duplicate","AGE ^= null","empty(AGE)","2026-04-21T11:05:30Z",NA
"CG0434","sdtm-ig-v2.0","CDISC","SDTM-IG","3.2;3.3;3.4","Medium","predicate","value-not-null","predicate","CORE-000122",NA,"TIG0586","",NA,"required","true-duplicate","AGETXT ^= null","empty(AGETXT)","2026-04-21T11:05:30Z",NA
"CG0435","sdtm-ig-v2.0","CDISC","SDTM-IG","3.2;3.3;3.4","Medium","predicate","value-conditional-populated-eq-lit","predicate","CORE-000007",NA,"TIG0587","FB0606",NA,NA,"true-duplicate","DTHFL = 'Y'","non_empty(DTHDTC) & not_equal_to(DTHFL,Y)","2026-04-21T15:23:47Z",NA
"CG0436","sdtm-ig-v2.0","CDISC","SDTM-IG","3.2;3.3;3.4","Medium","predicate","value-in-dictionary","predicate",NA,NA,NA,NA,NA,NA,NA,"--SOC = MedDRA primary system organ class","operator: value_in_dictionary name: --SOC dict_name: meddra field: soc","2026-04-24T16:36:13Z",NA
"CG0437","sdtm-ig-v2.0","CDISC","SDTM-IG","3.2;3.3;3.4","Medium","predicate","value-in-dictionary","predicate",NA,NA,NA,NA,NA,NA,NA,"--SOCCD = MedDRA primary system organ class code","operator: value_in_dictionary name: --SOCCD dict_name: meddra field: soc_code","2026-04-24T16:36:13Z",NA
"CG0438","sdtm-ig-v2.0","CDISC","SDTM-IG","3.2;3.3","Medium","predicate",NA,"predicate","CORE-000730",NA,"","",NA,NA,"core-is-better","TSVAL conforms to ISO 8601 time period",NA,NA,NA
"CG0439","sdtm-ig-v2.0","CDISC","SDTM-IG","3.2;3.3","Medium","predicate",NA,"predicate","CORE-000731",NA,"","",NA,NA,"core-is-better","TSVAL conforms to ISO 8601 time period",NA,NA,NA
"CG0440","sdtm-ig-v2.0","CDISC","SDTM-IG","3.2;3.3","Medium","predicate","value-conditional-not-matches-regex","predicate","CORE-000340",NA,"","",NA,NA,"true-duplicate","TSVAL is integer and > 0","all: - operator: is_contained_by name: TSPARMCD value: ['PLANSUB'] - operator: not_matches_regex name: TSVAL value: '^[1-9][0-9]*$'","2026-04-24T12:23:56Z",NA
"CG0441","sdtm-ig-v2.0","CDISC","SDTM-IG","3.2;3.3","Medium","predicate","value-not-null","predicate","CORE-000467",NA,"","",NA,"required","true-duplicate","TSVAL ^= null","empty(TSVAL)","2026-04-21T11:05:30Z",NA
"CG0442","sdtm-ig-v2.0","CDISC","SDTM-IG","3.2;3.3","Medium","predicate","value-in-srs-registry","predicate",NA,NA,NA,NA,NA,NA,NA,"TSVAL is a valid preferred term from FDA Substance Registration System (SRS)","all: - name: TSPARMCD operator: equal_to value: CURTRT - name: TSVAL operator: value_in_srs_table field: preferred_name","2026-04-24T11:43:04Z",NA
"CG0443","sdtm-ig-v2.0","CDISC","SDTM-IG","3.2;3.3","Medium","predicate","value-in-srs-registry","predicate",NA,NA,NA,NA,NA,NA,NA,"TSVALCD is a valid unique ingredient identifier from FDA Substance Registration System (SRS)","all: - name: TSPARMCD operator: equal_to value: CURTRT - name: TSVALCD operator: value_in_srs_table field: unii","2026-04-24T11:43:04Z",NA
"CG0444","sdtm-ig-v2.0","CDISC","SDTM-IG","3.2;3.3","Medium","predicate","value-conditional-literal-assert","predicate","CORE-000735",NA,"","",NA,NA,"true-duplicate","TSVCDREF = 'UNII'","is_contained_by(TSPARMCD,COMPTRT,CURTRT,TRT) & not_equal_to(TSVCDREF,UNII)","2026-04-21T14:32:01Z",NA
"CG0445","sdtm-ig-v2.0","CDISC","SDTM-IG","3.2;3.3","Medium","predicate","value-in-srs-registry","predicate",NA,NA,NA,NA,NA,NA,NA,"TSVAL is a valid preferred term from FDA Substance Registration System (SRS)","all: - name: TSPARMCD operator: equal_to value: COMPTRT - name: TSVAL operator: value_in_srs_table field: preferred_name","2026-04-24T11:43:04Z",NA
"CG0446","sdtm-ig-v2.0","CDISC","SDTM-IG","3.2;3.3","Medium","predicate","value-in-srs-registry","predicate",NA,NA,NA,NA,NA,NA,NA,"TSVALCD is a valid unique ingredient identifier from FDA Substance Registration System (SRS)","all: - name: TSPARMCD operator: equal_to value: COMPTRT - name: TSVALCD operator: value_in_srs_table field: unii","2026-04-24T11:43:04Z",NA
"CG0448","sdtm-ig-v2.0","CDISC","SDTM-IG","3.2;3.3","Medium","narrative",NA,"narrative",NA,NA,NA,NA,NA,NA,NA,"TSVAL is a valid term from SNOMED CT",NA,NA,NA
"CG0449","sdtm-ig-v2.0","CDISC","SDTM-IG","3.2;3.3","Medium","narrative",NA,"narrative",NA,NA,NA,NA,NA,NA,NA,"TSVALCD is a valid concept identifier from SNOMED CT",NA,NA,NA
"CG0450","sdtm-ig-v2.0","CDISC","SDTM-IG","3.2;3.3","Medium","predicate","value-in-srs-registry","predicate",NA,NA,NA,NA,NA,NA,NA,"TSVAL is a valid preferred term from FDA Substance Registration System (SRS)","all: - name: TSPARMCD operator: equal_to value: TRT - name: TSVAL operator: value_in_srs_table field: preferred_name","2026-04-24T11:43:04Z",NA
"CG0451","sdtm-ig-v2.0","CDISC","SDTM-IG","3.2;3.3","Medium","predicate","value-in-srs-registry","predicate",NA,NA,NA,NA,NA,NA,NA,"TSVALCD is a valid unique ingredient identifier from FDA Substance Registration System (SRS)","all: - name: TSPARMCD operator: equal_to value: TRT - name: TSVALCD operator: value_in_srs_table field: unii","2026-04-24T11:43:04Z",NA
"CG0453","sdtm-ig-v2.0","CDISC","SDTM-IG","3.2;3.3","Medium","narrative",NA,"narrative",NA,NA,NA,NA,NA,NA,NA,"TSVAL is a valid term from NDF-RT",NA,NA,NA
"CG0454","sdtm-ig-v2.0","CDISC","SDTM-IG","3.2;3.3","Medium","narrative",NA,"narrative",NA,NA,NA,NA,NA,NA,NA,"TSVALCD is a valid code from NDF-RT",NA,NA,NA
"CG0455","sdtm-ig-v2.0","CDISC","SDTM-IG","3.2;3.3","Medium","predicate","value-conditional-literal-assert","predicate","CORE-000483",NA,"","",NA,NA,"true-duplicate","TSVCDREF = 'NDF-RT'","is_contained_by(TSPARMCD,PCLAS) & not_equal_to(TSVCDREF,NDF-RT)","2026-04-21T14:32:01Z",NA
"CG0456","sdtm-ig-v2.0","CDISC","SDTM-IG","3.2;3.3","Medium","predicate","value-conditional-literal-assert","predicate","CORE-000339",NA,"","",NA,NA,"true-duplicate","TSVCDREF = 'ISO 3166-1 alpha-3'","is_contained_by(TSPARMCD,FCNTRY) & not_equal_to(TSVCDREF,ISO 3166-1 alpha-3)","2026-04-21T14:32:01Z",NA
"CG0457","sdtm-ig-v2.0","CDISC","SDTM-IG","3.2;3.3","Medium","predicate","value-conditional-not-matches-regex","predicate","CORE-000338",NA,"","",NA,NA,"true-duplicate","TSVAL is integer and > 0","all: - operator: is_contained_by name: TSPARMCD value: ['ACTSUB'] - operator: not_matches_regex name: TSVAL value: '^[1-9][0-9]*$'","2026-04-24T12:23:56Z",NA
"CG0458","sdtm-ig-v2.0","CDISC","SDTM-IG","3.2;3.3","Medium","predicate","value-conditional-literal-assert","predicate","CORE-000564",NA,"","",NA,NA,"true-duplicate","TSVCDREF = 'SNOMED'","is_contained_by(TSPARMCD,INDIC,TDIGRP) & not_equal_to(TSVCDREF,SNOMED)","2026-04-21T14:32:01Z",NA
"CG0459","sdtm-ig-v2.0","CDISC","SDTM-IG","3.2;3.3","Medium","predicate",NA,"predicate","CORE-000041",NA,"TIG0689","",NA,NA,"core-is-better","TSVALNF = null",NA,NA,NA
"CG0460","sdtm-ig-v2.0","CDISC","SDTM-IG","3.2;3.3;3.4","Medium","narrative",NA,"narrative",NA,NA,NA,NA,NA,NA,NA,"--HLT on path to MedDRA primary system organ class",NA,NA,"Q27: stays narrative; requires MedDRA hierarchy path check (HLT->SOC)"
"CG0461","sdtm-ig-v2.0","CDISC","SDTM-IG","3.2;3.3;3.4","Medium","narrative",NA,"narrative",NA,NA,NA,NA,NA,NA,NA,"--HLGT on path to MedDRA primary system organ class",NA,NA,"Q27: stays narrative; requires MedDRA hierarchy path check (HLGT->SOC)"
"CG0462","sdtm-ig-v2.0","CDISC","SDTM-IG","3.2;3.3;3.4","Medium","predicate","value-not-null","predicate","CORE-000217",NA,"TIG0592","",NA,"required","true-duplicate","ECDOSTXT ^= null","empty(ECDOSTXT)","2026-04-21T11:05:30Z",NA
"CG0463","sdtm-ig-v2.0","CDISC","SDTM-IG","3.2;3.3;3.4","Medium","narrative",NA,"narrative",NA,NA,NA,NA,NA,NA,NA,"--TRT present in custom interventions dataset",NA,NA,NA
"CG0464","sdtm-ig-v2.0","CDISC","SDTM-IG","3.2;3.3;3.4","Medium","narrative",NA,"narrative",NA,NA,NA,NA,NA,NA,NA,"--TERM present in custom events dataset",NA,NA,NA
"CG0465","sdtm-ig-v2.0","CDISC","SDTM-IG","3.2;3.3;3.4","Medium","predicate","value-conditional-null-empty","predicate","CORE-000218",NA,"TIG0595; TIG0055","",NA,NA,"true-duplicate","IDVARVAL = null","empty(IDVAR) & non_empty(IDVARVAL)","2026-04-21T13:51:48Z",NA
"CG0466","sdtm-ig-v2.0","CDISC","SDTM-IG","3.2;3.3;3.4","Medium","predicate","unit-variable-required-when-var-populated","predicate",NA,NA,NA,NA,NA,NA,NA,"--LLOQ is expressed using the units in --STRESU","all: - operator: non_empty name: --LLOQ - operator: matches_regex name: --LLOQ value: ""^[-+]?[0-9]*\\.?[0-9]+$"" - operator: empty name: --STRESU","2026-04-24T09:34:59Z",NA
"CG0467","sdtm-ig-v2.0","CDISC","SDTM-IG","3.2;3.3;3.4","Medium","predicate",NA,"predicate","CORE-000207",NA,"TIG0597; TIG0276","",NA,NA,"core-is-better","--STDTC not present",NA,NA,NA
"CG0468","sdtm-ig-v2.0","CDISC","SDTM-IG","3.2;3.3;3.4","Medium","predicate","presence-pair","predicate","CORE-000026",NA,"TIG0598","",NA,NA,"true-duplicate","--TPTNUM present in dataset","exists(--TPT) & not_exists(--TPTNUM)","2026-04-21T14:45:10Z",NA
"CG0501","sdtm-ig-v2.0","CDISC","SDTM-IG","3.3;3.4","Medium","predicate","submission-dataset-required","predicate","CORE-000297",NA,"","",NA,NA,"true-duplicate","TM dataset present in study","operator: not_exists name: %dataset%","2026-04-24T10:02:11Z",NA
"CG0502","sdtm-ig-v2.0","CDISC","SDTM-IG","3.3;3.4","Medium","predicate","submission-dataset-required","predicate","CORE-000777",NA,"","",NA,NA,"true-duplicate","TM dataset present in study","operator: not_exists name: %dataset%","2026-04-24T10:02:11Z",NA
"CG0503","sdtm-ig-v2.0","CDISC","SDTM-IG","3.3;3.4","Medium","predicate","presence-pair","predicate","CORE-000193",NA,"","",NA,NA,"true-duplicate","MIDS present in dataset","exists(MIDSDTC) & not_exists(MIDS)","2026-04-21T14:45:10Z",NA
"CG0507","sdtm-ig-v2.0","CDISC","SDTM-IG","3.3;3.4","Medium","predicate","presence-forbidden","predicate","CORE-000049",NA,"TIG0602; TIG0663","",NA,"find_prohibited","true-duplicate","--USCHFL not present in dataset","exists(--USCHFL)","2026-04-21T10:48:15Z",NA
"CG0508","sdtm-ig-v2.0","CDISC","SDTM-IG","3.3;3.4","Medium","predicate","presence-forbidden","predicate","CORE-000074",NA,"TIG0603","",NA,"find_prohibited","true-duplicate","--IMPLBL not present in dataset","exists(--IMPLBL)","2026-04-21T10:48:15Z",NA
"CG0509","sdtm-ig-v2.0","CDISC","SDTM-IG","3.3;3.4","Medium","predicate","presence-forbidden","predicate","CORE-000057",NA,"TIG0604; TIG0671","",NA,"find_prohibited","true-duplicate","FETUSID not present in dataset","exists(FETUSID)","2026-04-21T10:48:15Z",NA
"CG0510","sdtm-ig-v2.0","CDISC","SDTM-IG","3.3;3.4","Medium","predicate","presence-forbidden","predicate","CORE-000245",NA,"TIG0605; TIG0676","",NA,"find_prohibited","true-duplicate","--NOMDY not present in dataset","exists(--NOMDY)","2026-04-21T10:48:15Z",NA
"CG0511","sdtm-ig-v2.0","CDISC","SDTM-IG","3.3;3.4","Medium","predicate","presence-forbidden","predicate","CORE-000246",NA,"TIG0606; TIG0677","",NA,"find_prohibited","true-duplicate","--NOMLBL not present in dataset","exists(--NOMLBL)","2026-04-21T10:48:15Z",NA
"CG0512","sdtm-ig-v2.0","CDISC","SDTM-IG","3.3;3.4","Medium","predicate","cross-lookup","predicate","CORE-000208",NA,"TIG0607","",NA,"lookup","true-duplicate","ACTARMCD in TA.ARMCD","is_not_contained_by(ACTARMCD,TA.ARMCD)","2026-04-21T12:20:10Z",NA
"CG0513","sdtm-ig-v2.0","CDISC","SDTM-IG","3.3;3.4","Medium","predicate",NA,"predicate","CORE-000223",NA,"TIG0608","",NA,NA,"core-is-better","ARMNRS^=null",NA,NA,NA
"CG0514","sdtm-ig-v2.0","CDISC","SDTM-IG","3.3;3.4","Medium","predicate","cross-lookup","predicate","CORE-000209",NA,"TIG0609","",NA,"lookup","true-duplicate","ACTARM in TA.ARM","is_not_contained_by(ACTARM,TA.ARM)","2026-04-21T12:20:10Z",NA
"CG0515","sdtm-ig-v2.0","CDISC","SDTM-IG","3.3;3.4","Medium","predicate",NA,"predicate","CORE-000224",NA,"TIG0610","",NA,NA,"core-is-better","ARMNRS^=null",NA,NA,NA
"CG0516","sdtm-ig-v2.0","CDISC","SDTM-IG","3.3;3.4","Medium","predicate","cross-lookup","predicate","CORE-000210",NA,"TIG0611","",NA,"lookup","true-duplicate","ARMCD in TA.ARMCD","is_not_contained_by(ARMCD,TA.ARMCD)","2026-04-21T12:20:10Z",NA
"CG0517","sdtm-ig-v2.0","CDISC","SDTM-IG","3.3;3.4","Medium","predicate",NA,"predicate","CORE-000045",NA,"TIG0612","",NA,NA,"core-is-better","ARMNRS^=null",NA,NA,NA
"CG0518","sdtm-ig-v2.0","CDISC","SDTM-IG","3.3;3.4","Medium","predicate","cross-lookup","predicate","CORE-000047",NA,"TIG0613","",NA,"lookup","true-duplicate","ARM in TA.ARM","is_not_contained_by(ARM,TA.ARM)","2026-04-21T12:20:10Z",NA
"CG0519","sdtm-ig-v2.0","CDISC","SDTM-IG","3.3;3.4","Medium","predicate",NA,"predicate","CORE-000046",NA,"TIG0614","",NA,NA,"core-is-better","ARMNRS^=null",NA,NA,NA
"CG0520","sdtm-ig-v2.0","CDISC","SDTM-IG","3.3;3.4","Medium","predicate",NA,"predicate","CORE-000121",NA,"TIG0615","",NA,NA,"core-is-better","ARMNRS = null",NA,NA,NA
"CG0521","sdtm-ig-v2.0","CDISC","SDTM-IG","3.3;3.4","Medium","predicate","value-conditional-null-empty","predicate","CORE-000119",NA,"TIG0616","",NA,NA,"true-duplicate","ARM = null","empty(ARMCD) & non_empty(ARM)","2026-04-21T13:51:48Z",NA
"CG0522","sdtm-ig-v2.0","CDISC","SDTM-IG","3.3;3.4","Medium","predicate","value-conditional-null-empty","predicate","CORE-000120",NA,"TIG0617","",NA,NA,"true-duplicate","ACTARM = null","empty(ACTARMCD) & non_empty(ACTARM)","2026-04-21T13:51:48Z",NA
"CG0523","sdtm-ig-v2.0","CDISC","SDTM-IG","3.3;3.4","Medium","narrative",NA,"narrative",NA,NA,NA,NA,NA,NA,NA,"ARMCD = null",NA,NA,NA
"CG0524","sdtm-ig-v2.0","CDISC","SDTM-IG","3.3;3.4","Medium","narrative",NA,"narrative",NA,NA,NA,NA,NA,NA,NA,"ACTARMCD = null",NA,NA,NA
"CG0525","sdtm-ig-v2.0","CDISC","SDTM-IG","3.3;3.4","Medium","narrative",NA,"blocker:requires-sponsor-intent-metadata",NA,NA,NA,NA,NA,NA,NA,"RACE = 'OTHER' or RACE = 'MULTIPLE'",NA,"2026-04-24T04:31:01Z","Q4 triage: condition not machine-checkable against SDTM columns."
"CG0526","sdtm-ig-v2.0","CDISC","SDTM-IG","3.3;3.4","Medium","narrative",NA,"blocker:requires-subject-intent-metadata",NA,NA,NA,NA,NA,NA,NA,"RACE = 'UNKNOWN'",NA,"2026-04-24T04:31:01Z","Q4 triage: condition not machine-checkable against SDTM columns."
"CG0527","sdtm-ig-v2.0","CDISC","SDTM-IG","3.3;3.4","Medium","predicate","dm-race-multiple-supp","predicate",NA,NA,NA,NA,NA,NA,NA,"RACE = 'MULTIPLE'","all: - operator: supp_row_count_exceeds name: USUBJID ref_dataset: SUPPDM qnam_pattern: '^RACE' threshold: 1 - operator: not_equal_to name: RACE value: 'MULTIPLE'","2026-04-24T08:10:15Z","Predicate via supp_row_count_exceeds (SUPPDM QNAM ^RACE rowcount)."
"CG0528","sdtm-ig-v2.0","CDISC","SDTM-IG","3.3;3.4","Medium","predicate",NA,"predicate","CORE-000211",NA,"","",NA,NA,"core-is-better","ADSL Population flags not in SUPPDM",NA,NA,NA
"CG0529","sdtm-ig-v2.0","CDISC","SDTM-IG","3.3;3.4","Medium","predicate","value-not-null","predicate","CORE-000191",NA,"TIG0622","",NA,"required","true-duplicate","RFENDTC ^= null","empty(RFENDTC)","2026-04-21T11:05:30Z",NA
"CG0530","sdtm-ig-v2.0","CDISC","SDTM-IG","3.3;3.4","Medium","predicate","value-conditional-null-populated","predicate","CORE-000192",NA,"TIG0623","",NA,NA,"true-duplicate","RFENDTC = null","non_empty(ARMNRS) & non_empty(RFENDTC)","2026-04-21T13:51:48Z",NA
"CG0531","sdtm-ig-v2.0","CDISC","SDTM-IG","3.3;3.4","Medium","predicate",NA,"predicate","CORE-000844",NA,"","",NA,NA,"core-is-better","Multiple SUPPDM.QNAM records exist for the subject",NA,"2026-04-24T22:05:17Z",NA
"CG0532","sdtm-ig-v2.0","CDISC","SDTM-IG","3.3;3.4","Medium","predicate","value-not-null","predicate",NA,NA,NA,NA,NA,"required",NA,"RFSTDTC ^= null","empty(RFSTDTC)","2026-04-21T11:05:30Z",NA
"CG0533","sdtm-ig-v2.0","CDISC","SDTM-IG","3.3;3.4","Medium","predicate","presence-forbidden","predicate","CORE-000073",NA,"","",NA,"find_prohibited","true-duplicate","RPATHCD not present in dataset","exists(RPATHCD)","2026-04-21T10:48:15Z",NA
"CG0534","sdtm-ig-v2.0","CDISC","SDTM-IG","3.3;3.4","Medium","predicate",NA,"predicate","CORE-000758",NA,"TIG0627","",NA,NA,"core-is-better","RFSTDTC = null",NA,NA,NA
"CG0535","sdtm-ig-v2.0","CDISC","SDTM-IG","3.3;3.4","High","predicate",NA,"predicate","CORE-000212",NA,"TIG0628","",NA,NA,"core-is-better","DSSCAT must be present",NA,NA,NA
"CG0536","sdtm-ig-v2.0","CDISC","SDTM-IG","3.3;3.4","Medium","predicate","uniqueness-filtered-composite-key","predicate","CORE-000213",NA,"TIG0629","",NA,NA,"true-duplicate","At most one record per subject per DSSCAT per epoch, including null values of DSSCAT","all: - operator: is_contained_by name: DSCAT value: ['DISPOSITION EVENT'] - operator: is_not_unique_set name:   - USUBJID
  - DSSCAT
  - EPOCH","2026-04-24T12:23:59Z",NA
"CG0537","sdtm-ig-v2.0","CDISC","SDTM-IG","3.3;3.4","Medium","predicate","uniqueness-filtered-composite-key","predicate","CORE-000374",NA,"TIG0630","",NA,NA,"true-duplicate","At most one record per subject per epoch","all: - operator: is_contained_by name: DSCAT value: ['DISPOSITION EVENT'] - operator: is_not_unique_set name:   - USUBJID
  - EPOCH","2026-04-24T12:23:59Z",NA
"CG0538","sdtm-ig-v2.0","CDISC","SDTM-IG","3.3;3.4","Medium","predicate","max-n-records-per-group-filtered","predicate","CORE-000214",NA,"TIG0631","",NA,NA,"true-duplicate","No more than 1 record per subject has DSSCAT = 'STUDY PARTICIPATION'",NA,"2026-04-24T12:24:48Z",NA
"CG0539","sdtm-ig-v2.0","CDISC","SDTM-IG","3.3;3.4","Medium","predicate","max-n-records-per-group-filtered","predicate","CORE-000215",NA,"","",NA,NA,"true-duplicate","No more than 1 record per subject has DSSCAT = 'STUDY TREATMENT'",NA,"2026-04-24T12:24:48Z",NA
"CG0540","sdtm-ig-v2.0","CDISC","SDTM-IG","3.3;3.4","Medium","predicate",NA,"predicate","CORE-000296",NA,"TIG0633","",NA,NA,"core-is-better","DS records present for subject",NA,"2026-04-24T22:05:17Z",NA
"CG0541","sdtm-ig-v2.0","CDISC","SDTM-IG","3.3;3.4","High","predicate",NA,"predicate","CORE-000170",NA,"TIG0634","",NA,NA,"core-is-better","Value must be 'Y' or null",NA,NA,NA
"CG0542","sdtm-ig-v2.0","CDISC","SDTM-IG","3.3;3.4","Medium","predicate","presence-forbidden","predicate","CORE-000072",NA,"","",NA,"find_prohibited","true-duplicate","--BEATNO not present in dataset","exists(--BEATNO)","2026-04-21T10:48:15Z",NA
"CG0545","sdtm-ig-v2.0","CDISC","SDTM-IG","3.3;3.4","Medium","predicate",NA,"predicate","CORE-000216",NA,"","",NA,NA,"core-is-better","MIDSTYPE is unique per subject",NA,"2026-04-24T22:05:17Z",NA
"CG0546","sdtm-ig-v2.0","CDISC","SDTM-IG","3.3;3.4","Medium","narrative",NA,"narrative",NA,NA,NA,NA,NA,NA,NA,"MIDS is suffixed with a sequence number in consistent chronological order",NA,NA,NA
"CG0547","sdtm-ig-v2.0","CDISC","SDTM-IG","3.3;3.4","Medium","predicate","value-not-null","predicate","CORE-000109",NA,"","",NA,"required","true-duplicate","SMSTDTC ^= null","empty(SMSTDTC)","2026-04-21T11:05:30Z",NA
"CG0548","sdtm-ig-v2.0","CDISC","SDTM-IG","3.3;3.4","Medium","narrative",NA,"narrative",NA,NA,NA,NA,NA,NA,NA,"--ORREF in same units as --ORRES",NA,NA,NA
"CG0549","sdtm-ig-v2.0","CDISC","SDTM-IG","3.3;3.4","Medium","predicate","value-not-null","predicate","CORE-000110",NA,"TIG0637","",NA,"required","true-duplicate","--STREFC ^= null","empty(--STREFC)","2026-04-21T11:05:30Z",NA
"CG0550","sdtm-ig-v2.0","CDISC","SDTM-IG","3.3;3.4","Medium","predicate","value-not-null","predicate","CORE-000295",NA,"TIG0638","",NA,"required","true-duplicate","--STREFN ^= null","empty(--STREFN)","2026-04-21T11:05:30Z",NA
"CG0551","sdtm-ig-v2.0","CDISC","SDTM-IG","3.3;3.4","Medium","narrative",NA,"narrative",NA,NA,NA,NA,NA,NA,NA,"--STREFN in same units as --STRESN",NA,NA,NA
"CG0552","sdtm-ig-v2.0","CDISC","SDTM-IG","3.3;3.4","Medium","predicate","presence-forbidden","predicate","CORE-000247",NA,"TIG0640; TIG0667","",NA,"find_prohibited","true-duplicate","--RESLOC not present in dataset","exists(--RESLOC)","2026-04-21T10:48:15Z",NA
"CG0553","sdtm-ig-v2.0","CDISC","SDTM-IG","3.3;3.4","Medium","predicate","value-not-null","predicate","CORE-000083",NA,"TIG0641","",NA,"required","true-duplicate","--ORRES ^= null","empty(--ORRES)","2026-04-21T11:05:30Z",NA
"CG0554","sdtm-ig-v2.0","CDISC","SDTM-IG","3.3;3.4","Medium","predicate",NA,"predicate","CORE-000107",NA,"TIG0642","",NA,NA,"core-is-better","STUDYID, DOMAIN, and --SEQ exist and at least one of USUBJID, APID, SPDEVID, or POOLID",NA,NA,NA
"CG0555","sdtm-ig-v2.0","CDISC","SDTM-IG","3.3;3.4","Medium","narrative",NA,"narrative",NA,NA,NA,NA,NA,NA,NA,"Terminology is for non-normalized parameter (Codelist ""PKUNIT"")",NA,NA,NA
"CG0556","sdtm-ig-v2.0","CDISC","SDTM-IG","3.3;3.4","Medium","narrative",NA,"narrative",NA,NA,NA,NA,NA,NA,NA,"Terminology is for parameter normalized by dose amount",NA,NA,NA
"CG0557","sdtm-ig-v2.0","CDISC","SDTM-IG","3.3;3.4","Medium","narrative",NA,"narrative",NA,NA,NA,NA,NA,NA,NA,"Terminology is for parameter normalized by weight",NA,NA,NA
"CG0558","sdtm-ig-v2.0","CDISC","SDTM-IG","3.3;3.4","Medium","narrative",NA,"narrative",NA,NA,NA,NA,NA,NA,NA,"Terminology is for non-normalized parameter",NA,NA,NA
"CG0559","sdtm-ig-v2.0","CDISC","SDTM-IG","3.3;3.4","Medium","narrative",NA,"narrative",NA,NA,NA,NA,NA,NA,NA,"Terminology is for parameter normalized by dose amount",NA,NA,NA
"CG0560","sdtm-ig-v2.0","CDISC","SDTM-IG","3.3;3.4","Medium","narrative",NA,"narrative",NA,NA,NA,NA,NA,NA,NA,"Terminology is for parameter normalized by weight",NA,NA,NA
"CG0561","sdtm-ig-v2.0","CDISC","SDTM-IG","3.3;3.4","Medium","predicate","value-conditional-null-empty","predicate","CORE-000082",NA,"","",NA,NA,"true-duplicate","PESTRESC = null","empty(PEORRES) & non_empty(PESTRESC)","2026-04-21T15:23:47Z",NA
"CG0562","sdtm-ig-v2.0","CDISC","SDTM-IG","3.3;3.4","Medium","predicate",NA,"predicate","CORE-001034",NA,"TIG0648","",NA,NA,"core-is-better","--REPNUM ^= null and unique per subject per test per the timing variables",NA,"2026-04-24T22:05:17Z",NA
"CG0563","sdtm-ig-v2.0","CDISC","SDTM-IG","3.3;3.4","Medium","narrative",NA,"blocker:requires-data-collection-tool-metadata",NA,NA,NA,NA,NA,NA,NA,"RSDRVFL = 'Y'",NA,"2026-04-24T04:31:01Z","Q4 triage: condition not machine-checkable against SDTM columns."
"CG0564","sdtm-ig-v2.0","CDISC","SDTM-IG","3.3;3.4","Medium","predicate","presence-forbidden","predicate","CORE-000111",NA,"TIG0649","",NA,"find_prohibited","true-duplicate","--AGENT not present in dataset","exists(--AGENT)","2026-04-21T10:48:15Z",NA
"CG0565","sdtm-ig-v2.0","CDISC","SDTM-IG","3.3;3.4","Medium","predicate","presence-forbidden","predicate","CORE-000112",NA,"TIG0650","",NA,"find_prohibited","true-duplicate","--CONC not present in dataset","exists(--CONC)","2026-04-21T10:48:15Z",NA
"CG0566","sdtm-ig-v2.0","CDISC","SDTM-IG","3.3;3.4","Medium","predicate","presence-forbidden","predicate","CORE-000113",NA,"TIG0651","",NA,"find_prohibited","true-duplicate","--CONCU not present in dataset","exists(--CONCU)","2026-04-21T10:48:15Z",NA
"CG0567","sdtm-ig-v2.0","CDISC","SDTM-IG","3.3;3.4","Medium","predicate","presence-forbidden","predicate","CORE-000114",NA,"TIG0652","",NA,"find_prohibited","true-duplicate","--EVDTYP not present in dataset","exists(--EVDTYP)","2026-04-21T10:48:15Z",NA
"CG0568","sdtm-ig-v2.0","CDISC","SDTM-IG","3.3","Medium","predicate","presence-forbidden","predicate","CORE-000326",NA,"","",NA,"find_prohibited","true-duplicate","EXMETHOD not present in dataset","exists(EXMETHOD)","2026-04-21T10:48:15Z",NA
"CG0569","sdtm-ig-v2.0","CDISC","SDTM-IG","3.3;3.4","Medium","predicate","value-not-null","predicate","CORE-000105",NA,"TIG0653","FB2602",NA,"required","true-duplicate","--STRESC ^= null","empty(--STRESC)","2026-04-21T11:05:30Z",NA
"CG0570","sdtm-ig-v2.0","CDISC","SDTM-IG","3.3;3.4","Medium","predicate",NA,"predicate","CORE-000115",NA,"","",NA,NA,"core-is-better","ARM not in ('Screen Failure', 'Not Assigned', 'Unplanned Treatment', 'Not Treated')",NA,NA,NA
"CG0571","sdtm-ig-v2.0","CDISC","SDTM-IG","3.2;3.3","Medium","predicate",NA,"predicate","CORE-000685",NA,"","FB0923",NA,NA,"core-is-better","--TPT and --TPTNUM have a one-to-one relationship per unique values of VISITNUM",NA,NA,NA
"CG0572","sdtm-ig-v2.0","CDISC","SDTM-IG","3.2;3.3","Medium","predicate",NA,"predicate","CORE-000686",NA,"","FB0924",NA,NA,"core-is-better","--TPT and --TPTNUM have a one-to-one relationship per unique values of --TPTREF",NA,NA,NA
"CG0573","sdtm-ig-v2.0","CDISC","SDTM-IG","3.2;3.3","Medium","predicate",NA,"predicate","CORE-000689",NA,"","FB0925",NA,NA,"core-is-better","--TPT and --TPTNUM have a one-to-one relationship per unique combination of VISITNUM and –TPTREF values",NA,NA,NA
"CG0601","sdtm-ig-v2.0","CDISC","SDTM-IG","3.4","Medium","predicate",NA,"predicate","CORE-000766",NA,"","",NA,NA,"core-is-better","--OBJ = --TERM",NA,NA,NA
"CG0602","sdtm-ig-v2.0","CDISC","SDTM-IG","3.4","Medium","predicate",NA,"predicate","CORE-000757",NA,"TIG0656","",NA,NA,"core-is-better","--OBJ = --TRT

",NA,NA,NA
"CG0603","sdtm-ig-v2.0","CDISC","SDTM-IG","3.4","Medium","predicate",NA,"predicate","CORE-000767",NA,"","",NA,NA,"core-is-better","--OBJ = --DECOD",NA,NA,NA
"CG0604","sdtm-ig-v2.0","CDISC","SDTM-IG","3.4","Medium","narrative",NA,"narrative",NA,NA,NA,NA,NA,NA,NA,"--OBJ = verbatim value",NA,NA,NA
"CG0605","sdtm-ig-v2.0","CDISC","SDTM-IG","3.4","Medium","narrative",NA,"narrative",NA,NA,NA,NA,NA,NA,NA,"--OBJ = coded value",NA,NA,NA
"CG0607","sdtm-ig-v2.0","CDISC","SDTM-IG","3.4","Medium","narrative",NA,"narrative",NA,NA,NA,NA,NA,NA,NA,"MBTEST = name of the organism or antigen",NA,NA,NA
"CG0608","sdtm-ig-v2.0","CDISC","SDTM-IG","3.4","Medium","narrative",NA,"narrative",NA,NA,NA,NA,NA,NA,NA,"MBTSTDTL='DETECTION'",NA,NA,NA
"CG0609","sdtm-ig-v2.0","CDISC","SDTM-IG","3.4","Medium","narrative",NA,"narrative",NA,NA,NA,NA,NA,NA,NA,"MBTESTCD='MCORGIDN'",NA,NA,NA
"CG0610","sdtm-ig-v2.0","CDISC","SDTM-IG","3.4","Medium","narrative",NA,"narrative",NA,NA,NA,NA,NA,NA,NA,"MBTEST = name of the organism or group of organisms",NA,NA,NA
"CG0614","sdtm-ig-v2.0","CDISC","SDTM-IG","3.4","Medium","narrative",NA,"narrative",NA,NA,NA,NA,NA,NA,NA,"MBTEST = name of the organism or antigen",NA,NA,NA
"CG0615","sdtm-ig-v2.0","CDISC","SDTM-IG","3.4","Medium","narrative",NA,"blocker:no-machine-checkable-condition",NA,NA,NA,NA,NA,NA,NA,"MBTSTDTL = 'DETECTION'",NA,"2026-04-24T04:31:01Z","Q4 triage: condition not machine-checkable against SDTM columns."
"CG0616","sdtm-ig-v2.0","CDISC","SDTM-IG","3.4","Medium","narrative",NA,"blocker:no-machine-checkable-condition",NA,NA,NA,NA,NA,NA,NA,"MBTESTCD = 'MCORGIDN'",NA,"2026-04-24T04:31:01Z","Q4 triage: condition not machine-checkable against SDTM columns."
"CG0617","sdtm-ig-v2.0","CDISC","SDTM-IG","3.4","Medium","narrative",NA,"narrative",NA,NA,NA,NA,NA,NA,NA,"MBTEST = name of the organism or group of organisms",NA,NA,NA
"CG0619","sdtm-ig-v2.0","CDISC","SDTM-IG","3.4","Medium","predicate",NA,"predicate","CORE-000116",NA,"TIG0660","",NA,NA,"core-is-better","--SPCUFL = 'N' or null",NA,NA,NA
"CG0620","sdtm-ig-v2.0","CDISC","SDTM-IG","3.3;3.4","Medium","predicate",NA,"predicate","CORE-000535",NA,"TIG0066; TIG0661","",NA,NA,"core-is-better","--SEQ is in a consistent chronological order",NA,"2026-04-24T22:05:17Z",NA
"CG0621","sdtm-ig-v2.0","CDISC","SDTM-IG","3.4","Medium","predicate","presence-forbidden","predicate","CORE-000048",NA,"TIG0662","",NA,"find_prohibited","true-duplicate","--METHOD not present in dataset","exists(--METHOD)","2026-04-21T10:48:15Z",NA
"CG0622","sdtm-ig-v2.0","CDISC","SDTM-IG","3.4","Medium","predicate","presence-forbidden","predicate","CORE-000049",NA,"TIG0602; TIG0663","",NA,"find_prohibited","true-duplicate","--USCHFL not present in dataset","exists(--USCHFL)","2026-04-21T10:48:15Z",NA
"CG0623","sdtm-ig-v2.0","CDISC","SDTM-IG","3.4","Medium","predicate","presence-forbidden","predicate","CORE-000050",NA,"TIG0664","",NA,"find_prohibited","true-duplicate","--RSTIND not present in dataset","exists(--RSTIND)","2026-04-21T10:48:15Z",NA
"CG0624","sdtm-ig-v2.0","CDISC","SDTM-IG","3.4","Medium","predicate","presence-forbidden","predicate","CORE-000051",NA,"TIG0665","",NA,"find_prohibited","true-duplicate","--RSTMOD not present in dataset","exists(--RSTMOD)","2026-04-21T10:48:15Z",NA
"CG0625","sdtm-ig-v2.0","CDISC","SDTM-IG","3.4","Medium","predicate","presence-forbidden","predicate","CORE-000052",NA,"TIG0666","",NA,"find_prohibited","true-duplicate","--IMPBL not present in dataset","exists(--IMPBL)","2026-04-21T10:48:15Z",NA
"CG0626","sdtm-ig-v2.0","CDISC","SDTM-IG","3.4","Medium","predicate","presence-forbidden","predicate","CORE-000247",NA,"TIG0640; TIG0667","",NA,"find_prohibited","true-duplicate","--RESLOC not present in dataset","exists(--RESLOC)","2026-04-21T10:48:15Z",NA
"CG0627","sdtm-ig-v2.0","CDISC","SDTM-IG","3.4","Medium","predicate","presence-forbidden","predicate","CORE-000054",NA,"TIG0668","",NA,"find_prohibited","true-duplicate","--DTHREL not present in dataset","exists(--DTHREL)","2026-04-21T10:48:15Z",NA
"CG0628","sdtm-ig-v2.0","CDISC","SDTM-IG","3.4","Medium","predicate","presence-forbidden","predicate","CORE-000055",NA,"TIG0669","",NA,"find_prohibited","true-duplicate","--EXCLFL not present in dataset","exists(--EXCLFL)","2026-04-21T10:48:15Z",NA
"CG0629","sdtm-ig-v2.0","CDISC","SDTM-IG","3.4","Medium","predicate","presence-forbidden","predicate","CORE-000056",NA,"TIG0670","",NA,"find_prohibited","true-duplicate","--REASEX not present in dataset","exists(--REASEX)","2026-04-21T10:48:15Z",NA
"CG0630","sdtm-ig-v2.0","CDISC","SDTM-IG","3.4","Medium","predicate","presence-forbidden","predicate","CORE-000057",NA,"TIG0604; TIG0671","",NA,"find_prohibited","true-duplicate","FETUSID not present in dataset","exists(FETUSID)","2026-04-21T10:48:15Z",NA
"CG0631","sdtm-ig-v2.0","CDISC","SDTM-IG","3.4","Medium","predicate","presence-forbidden","predicate","CORE-000058",NA,"TIG0672","",NA,"find_prohibited","true-duplicate","RPHASE not present in dataset","exists(RPHASE)","2026-04-21T10:48:15Z",NA
"CG0632","sdtm-ig-v2.0","CDISC","SDTM-IG","3.4","Medium","predicate","presence-forbidden","predicate","CORE-000059",NA,"TIG0673","",NA,"find_prohibited","true-duplicate","RPPLDY not present in dataset","exists(RPPLDY)","2026-04-21T10:48:15Z",NA
"CG0633","sdtm-ig-v2.0","CDISC","SDTM-IG","3.4","Medium","predicate","presence-forbidden","predicate","CORE-000060",NA,"TIG0674","",NA,"find_prohibited","true-duplicate","RPPLSTDY not present in dataset","exists(RPPLSTDY)","2026-04-21T10:48:15Z",NA
"CG0634","sdtm-ig-v2.0","CDISC","SDTM-IG","3.4","Medium","predicate","presence-forbidden","predicate","CORE-000061",NA,"TIG0675","",NA,"find_prohibited","true-duplicate","RPLENDY not present in dataset","exists(RPLENDY)","2026-04-21T10:48:15Z",NA
"CG0635","sdtm-ig-v2.0","CDISC","SDTM-IG","3.4","Medium","predicate","presence-forbidden","predicate","CORE-000245",NA,"TIG0605; TIG0676","",NA,"find_prohibited","true-duplicate","--NOMDY not present in dataset","exists(--NOMDY)","2026-04-21T10:48:15Z",NA
"CG0636","sdtm-ig-v2.0","CDISC","SDTM-IG","3.4","Medium","predicate","presence-forbidden","predicate","CORE-000246",NA,"TIG0606; TIG0677","",NA,"find_prohibited","true-duplicate","--NOMLBL not present in dataset","exists(--NOMLBL)","2026-04-21T10:48:15Z",NA
"CG0637","sdtm-ig-v2.0","CDISC","SDTM-IG","3.4","Medium","predicate","presence-forbidden","predicate","CORE-000064",NA,"TIG0678","",NA,"find_prohibited","true-duplicate","--NOMLBL not present in dataset","exists(--NOMLBL)","2026-04-21T10:48:15Z",NA
"CG0638","sdtm-ig-v2.0","CDISC","SDTM-IG","3.4","Medium","predicate","presence-forbidden","predicate","CORE-000065",NA,"TIG0679","",NA,"find_prohibited","true-duplicate","--RPSTDY not present in dataset","exists(--RPSTDY)","2026-04-21T10:48:15Z",NA
"CG0639","sdtm-ig-v2.0","CDISC","SDTM-IG","3.4","Medium","predicate","presence-forbidden","predicate","CORE-000066",NA,"TIG0680","",NA,"find_prohibited","true-duplicate","--RPENDY not present in dataset","exists(--RPENDY)","2026-04-21T10:48:15Z",NA
"CG0640","sdtm-ig-v2.0","CDISC","SDTM-IG","3.4","Medium","predicate","presence-forbidden","predicate","CORE-000067",NA,"TIG0681","",NA,"find_prohibited","true-duplicate","--DETECT not present in dataset","exists(--DETECT)","2026-04-21T10:48:15Z",NA
"CG0641","sdtm-ig-v2.0","CDISC","SDTM-IG","3.4","Medium","predicate","presence-forbidden","predicate","CORE-000068",NA,"TIG0682","",NA,"find_prohibited","true-duplicate","AGETXT not present in dataset","exists(AGETXT)","2026-04-21T10:48:15Z",NA
"CG0642","sdtm-ig-v2.0","CDISC","SDTM-IG","3.4","Medium","predicate","presence-forbidden","predicate","CORE-000069",NA,"TIG0683","",NA,"find_prohibited","true-duplicate","SPECIES not present in dataset","exists(SPECIES)","2026-04-21T10:48:15Z",NA
"CG0643","sdtm-ig-v2.0","CDISC","SDTM-IG","3.4","Medium","predicate","presence-forbidden","predicate","CORE-000070",NA,"TIG0684","",NA,"find_prohibited","true-duplicate","STRAIN not present in dataset","exists(STRAIN)","2026-04-21T10:48:15Z",NA
"CG0644","sdtm-ig-v2.0","CDISC","SDTM-IG","3.4","Medium","predicate","presence-forbidden","predicate","CORE-000071",NA,"TIG0685","",NA,"find_prohibited","true-duplicate","SBSTRAIN not present in dataset","exists(SBSTRAIN)","2026-04-21T10:48:15Z",NA
"CG0646","sdtm-ig-v2.0","CDISC","SDTM-IG","3.4","Medium","predicate","submission-dataset-absent","predicate","CORE-000044",NA,"TIG0686","",NA,NA,"true-duplicate","SJ dataset not present","operator: exists name: %dataset%","2026-04-24T10:02:11Z",NA
"CG0647","sdtm-ig-v2.0","CDISC","SDTM-IG","3.4","Medium","predicate",NA,"predicate","CORE-000042",NA,"TIG0687","",NA,NA,"core-is-better","TJ dataset not present",NA,NA,NA
"CG0648","sdtm-ig-v2.0","CDISC","SDTM-IG","3.4","Medium","predicate",NA,"predicate","CORE-000043",NA,"TIG0688","",NA,NA,"core-is-better","TP dataset not present",NA,NA,NA
"CG0649","sdtm-ig-v2.0","CDISC","SDTM-IG","3.4","Medium","predicate",NA,"predicate","CORE-000041",NA,"TIG0689","",NA,NA,"core-is-better","TSVALNF = null",NA,NA,NA
"CG0650","sdtm-ig-v2.0","CDISC","SDTM-IG","3.2;3.3;3.4","Medium","predicate",NA,"predicate","CORE-000778",NA,"","",NA,NA,"core-is-better","Split dataset names length > 4 and <= 6",NA,NA,NA
"CG0651","sdtm-ig-v2.0","CDISC","SDTM-IG","3.3;3.4","Medium","narrative",NA,"narrative",NA,NA,NA,NA,NA,NA,NA,"Variable present in dataset",NA,NA,NA
"CG0653","sdtm-ig-v2.0","CDISC","SDTM-IG","3.4","Medium","predicate","value-in-set","predicate","CORE-000037",NA,"TIG0691","",NA,NA,"true-duplicate","SVPRESP in (""Y"", null)","operator: is_not_contained_by name: SVPRESP value: ['Y']","2026-04-24T04:13:11Z",NA
"CG0654","sdtm-ig-v2.0","CDISC","SDTM-IG","3.4","Medium","predicate","value-conditional-populated-eq-lit","predicate","CORE-000038",NA,"TIG0692","",NA,NA,"true-duplicate","SVPRESP = ""Y""","non_empty(SVOCCUR) & not_equal_to(SVPRESP,Y)","2026-04-21T15:23:47Z",NA
"CG0655","sdtm-ig-v2.0","CDISC","SDTM-IG","3.4","Medium","predicate","cross-lookup","predicate","CORE-000039",NA,"TIG0693","",NA,"lookup","true-duplicate","VISITNUM in TV.VISITNUM","is_not_contained_by(VISITNUM,TV.VISITNUM)","2026-04-21T12:20:10Z",NA
"CG0656","sdtm-ig-v2.0","CDISC","SDTM-IG","3.4","Medium","predicate",NA,"predicate","CORE-000040",NA,"TIG0694","",NA,NA,"core-is-better","VISITNUM not in TV.VISITNUM",NA,"2026-04-24T22:05:17Z",NA
"CG0657","sdtm-ig-v2.0","CDISC","SDTM-IG","3.4","Medium","predicate","cross-lookup","predicate","CORE-000036",NA,"TIG0695","",NA,"lookup","true-duplicate","VISIT in TV.VISIT","is_not_contained_by(VISIT,TV.VISIT)","2026-04-21T12:20:10Z",NA
"CG0658","sdtm-ig-v2.0","CDISC","SDTM-IG","3.4","Medium","predicate","value-conditional-null-empty","predicate","CORE-000035",NA,"TIG0696","",NA,NA,"true-duplicate","VISITDY = null","empty(SVPRESP) & non_empty(VISITDY)","2026-04-21T13:51:48Z",NA
"CG0659","sdtm-ig-v2.0","CDISC","SDTM-IG","3.4","Medium","predicate","presence-forbidden","predicate","CORE-000031",NA,"","",NA,"find_prohibited","true-duplicate","--EVAL not present in dataset","exists(--EVAL)","2026-04-21T10:48:15Z",NA
"CG0660","sdtm-ig-v2.0","CDISC","SDTM-IG","3.4","Medium","predicate","presence-forbidden","predicate","CORE-000032",NA,"","",NA,"find_prohibited","true-duplicate","--EVALID not present in dataset","exists(--EVALID)","2026-04-21T10:48:15Z",NA
"CG0661","sdtm-ig-v2.0","CDISC","SDTM-IG","3.4","Medium","predicate","presence-pair","predicate","CORE-000029",NA,"TIG0697","",NA,NA,"true-duplicate","--TPT present in dataset","exists(--TPTNUM) & not_exists(--TPT)","2026-04-21T14:45:10Z",NA
"CG0662","sdtm-ig-v2.0","CDISC","SDTM-IG","3.2","Medium","predicate",NA,"predicate","CORE-000535",NA,"TIG0066; TIG0661","",NA,NA,"core-is-better","--SEQ is in consistent chronological order",NA,"2026-04-24T22:05:17Z",NA
"CG0663","sdtm-ig-v2.0","CDISC","SDTM-IG","3.4","Medium","narrative",NA,"narrative",NA,NA,NA,NA,NA,NA,NA,"Value length = 4 characters beginning with 'AP' and ending with 2 character SDTM domain ",NA,NA,NA
"CG0664","sdtm-ig-v2.0","CDISC","SDTM-IG","3.4","Medium","predicate",NA,"predicate","CORE-000852",NA,"TIG0698","",NA,NA,"core-is-better","Variables are ordered with Identifiers first, followed by the Topic, Qualifier, and Timing variables. Within each role, variables are ordered as shown in SDTM t",NA,"2026-04-24T22:05:17Z",NA
"CG0665","sdtm-ig-v2.0","CDISC","SDTM-IG","3.4","Medium","predicate","value-not-null","predicate","CORE-000189",NA,"TIG0699","",NA,"required","true-duplicate","AGEU ^= null","empty(AGEU)","2026-04-21T11:05:30Z",NA
"CG0666","sdtm-ig-v2.0","CDISC","SDTM-IG","3.4","Medium","predicate","value-not-null","predicate","CORE-000190",NA,"TIG0700","",NA,"required","true-duplicate","AGE ^= null","empty(AGE)","2026-04-21T11:05:30Z",NA
"1","adam-v5.0","CDISC","ADaM-IG","1.0;1.1;1.2;1.3","Medium","predicate","submission-dataset-exists","predicate",NA,NA,NA,NA,NA,NA,NA,"ADSL dataset does not exist","not_exists(ADSL)","2026-04-21T20:31:18Z",NA
"10","adam-v5.0","CDISC","ADaM-IG","1.0;1.1;1.2;1.3","Medium","predicate","suffix-pair-cond-equal-literal","predicate",NA,NA,NA,NA,NA,NA,NA,"A variable with a suffix of FL is equal to Y and a variable with the same root and a suffix of FN is not equal to 1","expand: - FL - FN all: - operator: equal_to name: stemFL value: 'Y' value_is_literal: true - operator: not_equal_to name: stemFN value: '1' value_is_literal: true","2026-04-24T19:14:25Z",NA
"102","adam-v5.0","CDISC","ADaM-IG","1.0;1.1;1.2;1.3","Medium","predicate","adsl-index-var-exists","predicate",NA,NA,NA,NA,NA,NA,NA,"For every unique xx value of APERIOD, there is not an ADSL variable TRTxxP","any_index_missing_ref_var(APERIOD,ADSL,TRTxxP,xx)","2026-04-21T20:08:03Z",NA
"103","adam-v5.0","CDISC","ADaM-IG","1.0;1.1;1.2;1.3","Medium","predicate","adsl-index-var-exists","predicate",NA,NA,NA,NA,NA,NA,NA,"For every unique xx value of APERIOD, there is not an ADSL variable TRxxSDT","any_index_missing_ref_var(APERIOD,ADSL,TRxxSDT,xx)","2026-04-21T20:08:03Z",NA
"104","adam-v5.0","CDISC","ADaM-IG","1.0;1.1;1.2;1.3","Medium","predicate","adsl-index-var-exists","predicate",NA,NA,NA,NA,NA,NA,NA,"For every unique xx value of APERIOD, there is not an ADSL variable TRxxEDT","any_index_missing_ref_var(APERIOD,ADSL,TRxxEDT,xx)","2026-04-21T20:08:03Z",NA
"105","adam-v5.0","CDISC","ADaM-IG","1.0","Medium","predicate","uniqueness-grouped","predicate",NA,NA,NA,NA,NA,"unique",NA,"There is more than one value of APERIODC for a given value of APERIOD","is_not_unique_relationship(APERIOD,APERIODC)","2026-04-21T11:50:50Z",NA
"106","adam-v5.0","CDISC","ADaM-IG","1.0","Medium","predicate","uniqueness-grouped","predicate",NA,NA,NA,NA,NA,"unique",NA,"There is more than one value of APERIOD for a given value of APERIODC","is_not_unique_relationship(APERIODC,APERIOD)","2026-04-21T11:50:50Z",NA
"109","adam-v5.0","CDISC","ADaM-IG","1.0","Medium","predicate","uniqueness-grouped-scoped","predicate",NA,NA,NA,NA,NA,NA,NA,"Within a given value of PARAMCD, there is more than one value of AVISITN for a given value of AVISIT","is_not_unique_relationship(AVISIT,AVISITN,PARAMCD)","2026-04-21T16:39:26Z",NA
"11","adam-v5.0","CDISC","ADaM-IG","1.0;1.1;1.2;1.3","Medium","predicate","suffix-pair-cond-equal-literal","predicate",NA,NA,NA,NA,NA,NA,NA,"A variable with a suffix of FL is equal to N and a variable with the same root and a suffix of FN is not equal to 0","expand: - FL - FN all: - operator: equal_to name: stemFL value: 'N' value_is_literal: true - operator: not_equal_to name: stemFN value: '0' value_is_literal: true","2026-04-24T19:14:25Z",NA
"110","adam-v5.0","CDISC","ADaM-IG","1.0","Medium","predicate","uniqueness-grouped-scoped","predicate",NA,NA,NA,NA,NA,NA,NA,"Within a given value of PARAMCD, there is more than one value of AVISIT for a given value of AVISITN","is_not_unique_relationship(AVISITN,AVISIT,PARAMCD)","2026-04-21T16:39:26Z",NA
"111","adam-v5.0","CDISC","ADaM-IG","1.0;1.1;1.2;1.3","Medium","predicate","presence-pair","predicate",NA,NA,NA,NA,NA,"find",NA,"ARELTM is present and ARELTMU is not present","exists(ARELTM) & not_exists(ARELTMU)","2026-04-20T00:00:00Z","demo conversion, predates the presence-pair batch"
"112","adam-v5.0","CDISC","ADaM-IG","1.0;1.1;1.2;1.3","Medium","predicate","value-conditional-populated","predicate",NA,NA,NA,NA,NA,"condition",NA,"ARELTM is populated and ARELTMU is not populated","non_empty(ARELTM) & empty(ARELTMU)","2026-04-21T11:35:41Z",NA
"113","adam-v5.0","CDISC","ADaM-IG","1.0;1.1;1.2;1.3","Medium","predicate","presence-pair","predicate",NA,NA,NA,NA,NA,"find",NA,"ARELTMU is present and ARELTM is not present","exists(ARELTMU) & not_exists(ARELTM)","2026-04-21T09:19:57Z",NA
"117","adam-v5.0","CDISC","ADaM-IG","1.0;1.2;1.3","Medium","predicate","uniqueness-grouped-scoped","predicate",NA,NA,NA,NA,NA,NA,NA,"Within a given value of PARAMCD, there is more than one value of ATPT for a given value of ATPTN","is_not_unique_relationship(ATPTN,ATPT,PARAMCD)","2026-04-21T16:39:26Z",NA
"118","adam-v5.0","CDISC","ADaM-IG","1.0;1.2;1.3","Medium","predicate","uniqueness-grouped-scoped","predicate",NA,NA,NA,NA,NA,NA,NA,"Within a given value of PARAMCD, there is more than one value of ATPTN for a given value of ATPT","is_not_unique_relationship(ATPT,ATPTN,PARAMCD)","2026-04-21T16:39:26Z",NA
"12","adam-v5.0","CDISC","ADaM-IG","1.0;1.1;1.2;1.3","Medium","predicate","suffix-pair-cond-null","predicate",NA,NA,NA,NA,NA,NA,NA,"A variable with a suffix of FL is equal to null and a variable with the same root and a suffix of FN is not equal to null","expand: - FL - FN all: - operator: empty name: stemFL - operator: non_empty name: stemFN","2026-04-24T19:14:28Z",NA
"121","adam-v5.0","CDISC","ADaM-IG","1.0;1.1;1.2;1.3","Medium","narrative",NA,"narrative",NA,NA,NA,NA,NA,NA,NA,"The value of a variable with a suffix of SDT is greater than the value of a variable with the same root and a suffix of EDT, considering only rows on which both",NA,NA,NA
"122","adam-v5.0","CDISC","ADaM-IG","1.0;1.1;1.2;1.3","Medium","narrative",NA,"narrative",NA,NA,NA,NA,NA,NA,NA,"The value of a variable with a suffix of SDTM is greater than the value of a variable with the same root and a suffix of EDTM, considering only rows on which bo",NA,NA,NA
"123","adam-v5.0","CDISC","ADaM-IG","1.0;1.1","Medium","predicate","uniqueness-grouped","predicate",NA,NA,NA,NA,NA,"unique",NA,"There is more than one value of PARAMTYP for a given value of PARAMCD","is_not_unique_relationship(PARAMCD,PARAMTYP)","2026-04-21T11:50:50Z",NA
"124","adam-v5.0","CDISC","ADaM-IG","1.0;1.1;1.2;1.3","Medium","predicate","uniqueness-grouped","predicate",NA,NA,NA,NA,NA,NA,NA,"There is more than one value of PARCATy for a given value of PARAMCD","is_not_unique_relationship(PARAMCD,PARCATy)","2026-04-21T15:33:29Z",NA
"125","adam-v5.0","CDISC","ADaM-IG","1.0","Medium","predicate","uniqueness-grouped","predicate",NA,NA,NA,NA,NA,NA,NA,"There is more than one value of PARCATy for a given value of PARCATyN","is_not_unique_relationship(PARCATyN,PARCATy)","2026-04-21T15:33:29Z",NA
"126","adam-v5.0","CDISC","ADaM-IG","1.0","Medium","predicate","uniqueness-grouped","predicate",NA,NA,NA,NA,NA,NA,NA,"There is more than one value of PARCATyN for a given value of PARCATy","is_not_unique_relationship(PARCATy,PARCATyN)","2026-04-21T15:33:29Z",NA
"127","adam-v5.0","CDISC","ADaM-IG","1.0;1.1;1.2;1.3","Medium","predicate","baseline-record-missing","predicate",NA,NA,NA,NA,NA,NA,NA,"Within a given value of PARAMCD for a subject, BASE is populated and there is not at least one record with ABLFL equal to Y",NA,"2026-04-24T10:44:15Z",NA
"128","adam-v5.0","CDISC","ADaM-IG","1.0;1.1;1.2;1.3","Medium","predicate","baseline-record-missing","predicate",NA,NA,NA,NA,NA,NA,NA,"Within a given value of PARAMCD for a subject, BASEC is populated and there is not at least one record with ABLFL equal to Y",NA,"2026-04-24T10:44:15Z",NA
"129","adam-v5.0","CDISC","ADaM-IG","1.0","Medium","predicate","uniqueness-grouped-scoped","predicate",NA,NA,NA,NA,NA,NA,NA,"Within a given value of PARAMCD for a subject, there is more than one value of BASE for a given value of BASEC","is_not_unique_relationship(BASEC,BASE,PARAMCD)","2026-04-21T16:39:26Z",NA
"13","adam-v5.0","CDISC","ADaM-IG","1.0;1.1;1.2;1.3","Medium","predicate","metadata-var-name-length","predicate",NA,NA,NA,NA,NA,NA,NA,"The length of a variable name exceeds 8 characters","any_var_name_exceeds_length(8)","2026-04-21T17:40:33Z",NA
"130","adam-v5.0","CDISC","ADaM-IG","1.0","Medium","predicate","uniqueness-grouped-scoped","predicate",NA,NA,NA,NA,NA,NA,NA,"Within a given value of PARAMCD for a subject, there is more than one value of BASEC for a given value of BASE","is_not_unique_relationship(BASE,BASEC,PARAMCD)","2026-04-21T16:39:26Z",NA
"131","adam-v5.0","CDISC","ADaM-IG","1.0;1.2","Medium","predicate","value-constant-per-group","predicate",NA,NA,NA,NA,NA,NA,NA,"Within a given value of PARAMCD, BASETYPE is populated for at least one record and is not populated for at least one record",NA,"2026-04-24T10:44:15Z",NA
"132","adam-v5.0","CDISC","ADaM-IG","1.0;1.1;1.2;1.3","Medium","narrative",NA,"narrative",NA,NA,NA,NA,NA,NA,NA,"R2BASE is not equal to AVAL divided by BASE",NA,NA,NA
"133","adam-v5.0","CDISC","ADaM-IG","1.0;1.1;1.2;1.3","Medium","narrative",NA,"narrative",NA,NA,NA,NA,NA,NA,NA,"R2AyLO is not equal to AVAL divided by AyLO",NA,NA,NA
"134","adam-v5.0","CDISC","ADaM-IG","1.0;1.1;1.2;1.3","Medium","narrative",NA,"narrative",NA,NA,NA,NA,NA,NA,NA,"R2AyHI is not equal to AVAL divided by AyHI",NA,NA,NA
"135","adam-v5.0","CDISC","ADaM-IG","1.0","Medium","predicate","uniqueness-grouped-scoped","predicate",NA,NA,NA,NA,NA,NA,NA,"Within a given value of PARAMCD, there is more than one value of SHIFTy for a given value of SHIFTyN","is_not_unique_relationship(SHIFTyN,SHIFTy,PARAMCD)","2026-04-21T16:39:26Z",NA
"136","adam-v5.0","CDISC","ADaM-IG","1.0","Medium","predicate","uniqueness-grouped-scoped","predicate",NA,NA,NA,NA,NA,NA,NA,"Within a given value of PARAMCD, there is more than one value of SHIFTyN for a given value of SHIFTy","is_not_unique_relationship(SHIFTy,SHIFTyN,PARAMCD)","2026-04-21T16:39:26Z",NA
"137","adam-v5.0","CDISC","ADaM-IG","1.0;1.1;1.2;1.3","Medium","predicate","value-conditional-populated-required","predicate",NA,NA,NA,NA,NA,NA,NA,"CRITyFL is populated and CRITy is not populated","expand: ""y"" all: - operator: non_empty name: CRITyFL - operator: empty name: CRITy","2026-04-24T12:51:28Z",NA
"14","adam-v5.0","CDISC","ADaM-IG","1.0;1.1;1.2;1.3","Medium","predicate","variable-name-format","predicate",NA,NA,NA,NA,NA,NA,NA,"A variable name does not start with a letter (A-Z)","operator: any_var_name_not_matching_regex value: ""%regex%""","2026-04-24T14:01:30Z",NA
"141","adam-v5.0","CDISC","ADaM-IG","1.0","Medium","predicate","uniqueness-grouped","predicate",NA,NA,NA,NA,NA,"unique",NA,"There is more than one value of PARAM for a given value of PARAMCD","is_not_unique_relationship(PARAMCD,PARAM)","2026-04-21T11:50:50Z",NA
"142","adam-v5.0","CDISC","ADaM-IG","1.0","Medium","predicate","uniqueness-grouped","predicate",NA,NA,NA,NA,NA,"unique",NA,"There is more than one value of PARAMCD for a given value of PARAM","is_not_unique_relationship(PARAM,PARAMCD)","2026-04-21T11:50:50Z",NA
"143","adam-v5.0","CDISC","ADaM-IG","1.0;1.1;1.2;1.3","Medium","predicate","value-length-le","predicate",NA,NA,NA,NA,NA,NA,NA,"PARAMCD has more than 8 characters in length","longer_than(PARAMCD,8)","2026-04-21T17:32:45Z",NA
"144","adam-v5.0","CDISC","ADaM-IG","1.0;1.1;1.2;1.3","Medium","predicate","value-regex-format","predicate",NA,NA,NA,NA,NA,NA,NA,"PARAMCD starts with a character other than a letter","not_matches_regex(PARAMCD,^[A-Za-z])","2026-04-21T17:32:45Z",NA
"145","adam-v5.0","CDISC","ADaM-IG","1.0;1.1;1.2;1.3","Medium","predicate","value-regex-format","predicate",NA,NA,NA,NA,NA,NA,NA,"PARAMCD has characters that are not letters, digits, and underscores","not_matches_regex(PARAMCD,^[A-Za-z0-9_]+$)","2026-04-21T17:32:45Z",NA
"146","adam-v5.0","CDISC","ADaM-IG","1.0","Medium","predicate","uniqueness-grouped","predicate",NA,NA,NA,NA,NA,NA,NA,"Within a dataset, there is more than one value of PARAM for a given value of PARAMN","is_not_unique_relationship(PARAMN,PARAM)","2026-04-21T15:33:29Z",NA
"147","adam-v5.0","CDISC","ADaM-IG","1.0","Medium","predicate","uniqueness-grouped","predicate",NA,NA,NA,NA,NA,NA,NA,"Within a dataset, there is more than one value of PARAMN for a given value of PARAM","is_not_unique_relationship(PARAM,PARAMN)","2026-04-21T15:33:29Z",NA
"148","adam-v5.0","CDISC","ADaM-IG","1.0","Medium","predicate","value-regex-format","predicate",NA,NA,NA,NA,NA,NA,NA,"PARAMN is not an integer","operator: not_matches_regex name: PARAMN value: '^-?[0-9]+$'","2026-04-24T12:24:18Z",NA
"149","adam-v5.0","CDISC","ADaM-IG","1.0","Medium","predicate","uniqueness-grouped-scoped","predicate",NA,NA,NA,NA,NA,NA,NA,"Within a given value of PARAMCD, there is more than one value of AVALC for a given value of AVAL","is_not_unique_relationship(AVAL,AVALC,PARAMCD)","2026-04-21T16:39:26Z",NA
"15","adam-v5.0","CDISC","ADaM-IG","1.0;1.1;1.2;1.3","Medium","predicate","variable-name-format","predicate",NA,NA,NA,NA,NA,NA,NA,"A variable name contains a character other than letters (A-Z), underscores (_), or numerals (0-9)","operator: any_var_name_not_matching_regex value: ""%regex%""","2026-04-24T14:01:30Z",NA
"150","adam-v5.0","CDISC","ADaM-IG","1.0","Medium","predicate","uniqueness-grouped-scoped","predicate",NA,NA,NA,NA,NA,NA,NA,"Within a given value of PARAMCD, there is more than one value of AVAL for a given value of AVALC","is_not_unique_relationship(AVALC,AVAL,PARAMCD)","2026-04-21T16:39:26Z",NA
"151","adam-v5.0","CDISC","ADaM-IG","1.0;1.1;1.2;1.3","Medium","predicate","value-constant-per-group","predicate",NA,NA,NA,NA,NA,NA,NA,"Within a given value of PARAMCD, there is more than one value of CRITy",NA,"2026-04-24T10:44:15Z",NA
"152","adam-v5.0","CDISC","ADaM-IG","1.0;1.1;1.2","Medium","predicate","baseline-equals-abl-row","predicate",NA,NA,NA,NA,NA,NA,NA,"BASETYPE is present, BASE is populated, and BASE is not equal to AVAL where ABLFL is equal to Y for a given value of PARAMCD and BASETYPE for a subject","expand: """" operator: base_not_equal_abl_row b_var: BASE a_var: AVAL group_by: - USUBJID
- PARAMCD
- BASETYPE basetype_gate: populated","2026-04-24T12:24:13Z",NA
"154","adam-v5.0","CDISC","ADaM-IG","1.0;1.1;1.2;1.3","Medium","predicate","max-n-records-per-group","predicate",NA,NA,NA,NA,NA,NA,NA,"Within a given PARAMCD and BASETYPE for a subject, more than one record has ABLFL equal to Y","operator: max_n_records_per_group_matching name: ABLFL value: 'Y' group_keys: - USUBJID
- PARAMCD
- BASETYPE max_n: 1","2026-04-24T12:24:01Z",NA
"155","adam-v5.0","CDISC","ADaM-IG","1.0;1.1;1.2;1.3","Medium","predicate","max-n-records-per-group","predicate",NA,NA,NA,NA,NA,NA,NA,"Within a given PARAMCD for a subject, more than one record has ABLFL equal to Y and BASETYPE is not present","operator: max_n_records_per_group_matching name: ABLFL value: 'Y' group_keys: - USUBJID
- PARAMCD max_n: 1","2026-04-24T12:24:01Z",NA
"156","adam-v5.0","CDISC","ADaM-IG","1.0","Medium","predicate","presence-pair","predicate",NA,NA,NA,NA,NA,NA,NA,"A variable with a prefix of CRIT, a suffix of FL and containing a one-digit number (CRITyFL) is present and a variable with the same root without a suffix of FL","expand: ""y"" all: - name: CRITyFL operator: exists - name: CRITy operator: not_exists","2026-04-24T12:51:32Z",NA
"157","adam-v5.0","CDISC","ADaM-IG","1.0;1.1;1.2;1.3","Medium","predicate","presence-pair","predicate",NA,NA,NA,NA,NA,NA,NA,"A variable with a prefix of CRIT and a suffix of a one-digit number (CRITy) is present and a variable with the same root with a suffix of FL (CRITyFL) is not pr","expand: ""y"" all: - name: CRITy operator: exists - name: CRITyFL operator: not_exists","2026-04-24T12:51:32Z",NA
"159","adam-v5.0","CDISC","ADaM-IG","1.0;1.1;1.2;1.3","Medium","predicate","value-conditional-populated","predicate",NA,NA,NA,NA,NA,"condition",NA,"AWTDIFF is populated and AWTARGET is not populated","non_empty(AWTDIFF) & empty(AWTARGET)","2026-04-21T11:35:41Z",NA
"16","adam-v5.0","CDISC","ADaM-IG","1.0;1.1;1.2;1.3","Medium","predicate","metadata-var-label-length","predicate",NA,NA,NA,NA,NA,NA,NA,"The length of a variable label is greater than 40 characters","any_var_label_exceeds_length(40)","2026-04-21T17:40:33Z",NA
"160","adam-v5.0","CDISC","ADaM-IG","1.0;1.1","Medium","narrative",NA,"narrative",NA,NA,NA,NA,NA,NA,NA,"AWU is present and both AWLO and AWHI are not present",NA,NA,NA
"163","adam-v5.0","CDISC","ADaM-IG","1.0;1.1;1.2;1.3","Medium","predicate","presence-pair","predicate",NA,NA,NA,NA,NA,"find",NA,"BTOXGR is present and ATOXGR is not present","exists(BTOXGR) & not_exists(ATOXGR)","2026-04-21T09:19:57Z",NA
"164","adam-v5.0","CDISC","ADaM-IG","1.0;1.1;1.2;1.3","Medium","predicate","presence-pair","predicate",NA,NA,NA,NA,NA,"find",NA,"BTOXGR is present and ABLFL is not present","exists(BTOXGR) & not_exists(ABLFL)","2026-04-21T09:19:57Z",NA
"165","adam-v5.0","CDISC","ADaM-IG","1.0;1.1;1.2","Medium","predicate","baseline-equals-abl-row","predicate",NA,NA,NA,NA,NA,NA,NA,"BASETYPE is present, BTOXGR is populated, and BTOXGR is not equal to ATOXGR where ABLFL is equal to Y for a given value of PARAMCD and BASETYPE","expand: """" operator: base_not_equal_abl_row b_var: BTOXGR a_var: ATOXGR group_by: - USUBJID
- PARAMCD
- BASETYPE basetype_gate: populated","2026-04-24T12:24:13Z",NA
"166","adam-v5.0","CDISC","ADaM-IG","1.0;1.1;1.2;1.3","Medium","predicate","presence-pair","predicate",NA,NA,NA,NA,NA,"find",NA,"BNRIND is present and ANRIND is not present","exists(BNRIND) & not_exists(ANRIND)","2026-04-21T09:19:57Z",NA
"167","adam-v5.0","CDISC","ADaM-IG","1.0;1.1;1.2;1.3","Medium","predicate","presence-pair","predicate",NA,NA,NA,NA,NA,"find",NA,"BNRIND is present and ABLFL is not present","exists(BNRIND) & not_exists(ABLFL)","2026-04-21T09:19:57Z",NA
"168","adam-v5.0","CDISC","ADaM-IG","1.0;1.1;1.2","Medium","predicate","baseline-equals-abl-row","predicate",NA,NA,NA,NA,NA,NA,NA,"BASETYPE is present, BNRIND is populated, and BNRIND is not equal to ANRIND where ABLFL is equal to Y for a given value of PARAMCD and BASETYPE","expand: """" operator: base_not_equal_abl_row b_var: BNRIND a_var: ANRIND group_by: - USUBJID
- PARAMCD
- BASETYPE basetype_gate: populated","2026-04-24T12:24:13Z",NA
"169","adam-v5.0","CDISC","ADaM-IG","1.0;1.1;1.2;1.3","Medium","narrative",NA,"narrative",NA,NA,NA,NA,NA,NA,NA,"The value of CNSR is not a positive integer or 0",NA,NA,NA
"17","adam-v5.0","CDISC","ADaM-IG","1.0;1.1;1.2;1.3","Medium","predicate","value-all-vars-length-le","predicate",NA,NA,NA,NA,NA,NA,NA,"The length of a character value is greater than 200 characters","any_value_exceeds_length(200)","2026-04-21T17:40:33Z",NA
"176","adam-v5.0","CDISC","ADaM-IG","1.0;1.1","Medium","predicate","value-flag-value-or-null","predicate",NA,NA,NA,NA,NA,NA,NA,"ABLFL is not equal to Y or null","expand: """" all: - operator: non_empty name: ABLFL - operator: is_not_contained_by name: ABLFL value: ['Y']","2026-04-24T12:23:51Z",NA
"178","adam-v5.0","CDISC","ADaM-IG","1.0;1.1","Medium","predicate","value-flag-value-or-null","predicate",NA,NA,NA,NA,NA,NA,NA,"ANLzzFL is not equal to Y or null where zz is a zero-padded two-digit integer [01-99]","expand: ""zz"" all: - operator: non_empty name: ANLzzFL - operator: is_not_contained_by name: ANLzzFL value: ['Y']","2026-04-24T12:23:51Z",NA
"18","adam-v5.0","CDISC","ADaM-IG","1.0","Medium","narrative",NA,"narrative",NA,NA,NA,NA,NA,NA,NA,"Labels for ADaM variables do not match the standard labels for ADaM variables listed in the implementation guide that cannot be modified (with the exception of ",NA,NA,NA
"180","adam-v5.0","CDISC","ADaM-IG","1.0","Medium","predicate","domain-code-format","predicate",NA,NA,NA,NA,NA,NA,NA,"SRCDOM has a value that is not an SDTM domain name or null","operator: not_matches_regex name: SRCDOM value: ""^[A-Z]{2}$""","2026-04-24T14:01:30Z",NA
"181","adam-v5.0","CDISC","ADaM-IG","1.0;1.1;1.2;1.3","Medium","predicate","baseline-equals-abl-row","predicate",NA,NA,NA,NA,NA,NA,NA,"BASETYPE is not present, BASE is populated, and BASE is not equal to AVAL where ABLFL is equal to Y for a given value of PARAMCD for a subject","expand: """" operator: base_not_equal_abl_row b_var: BASE a_var: AVAL group_by: - USUBJID
- PARAMCD basetype_gate: absent","2026-04-24T11:33:50Z",NA
"182","adam-v5.0","CDISC","ADaM-IG","1.0;1.1;1.2;1.3","Medium","predicate","baseline-equals-abl-row","predicate",NA,NA,NA,NA,NA,NA,NA,"BASETYPE is not present, BTOXGR is populated, and BTOXGR is not equal to ATOXGR where ABLFL is equal to Y for a given value of PARAMCD for a subject","expand: """" operator: base_not_equal_abl_row b_var: BTOXGR a_var: ATOXGR group_by: - USUBJID
- PARAMCD basetype_gate: absent","2026-04-24T11:33:50Z",NA
"183","adam-v5.0","CDISC","ADaM-IG","1.0;1.1;1.2;1.3","Medium","predicate","baseline-equals-abl-row","predicate",NA,NA,NA,NA,NA,NA,NA,"BASETYPE is not present, BNRIND is populated, and BNRIND is not equal to ANRIND where ABLFL is equal to Y for a given value of PARAMCD for a subject","expand: """" operator: base_not_equal_abl_row b_var: BNRIND a_var: ANRIND group_by: - USUBJID
- PARAMCD basetype_gate: absent","2026-04-24T11:33:50Z",NA
"19","adam-v5.0","CDISC","ADaM-IG","1.0;1.1;1.2;1.3","Medium","predicate","value-flag-yn","predicate",NA,NA,NA,NA,NA,NA,NA,"COMPLFL is present and has a value that is not Y or N","non_empty(COMPLFL) & is_not_contained_by(COMPLFL,Y,N)","2026-04-21T21:32:39Z",NA
"194","adam-v5.0","CDISC","ADaM-IG","1.0;1.1;1.2;1.3","Medium","predicate","presence-required","predicate",NA,NA,NA,NA,NA,"required",NA,"PARAM is not present","not_exists(PARAM)","2026-04-21T11:26:53Z",NA
"195","adam-v5.0","CDISC","ADaM-IG","1.0;1.1;1.2;1.3","Medium","predicate","presence-required","predicate",NA,NA,NA,NA,NA,"required",NA,"PARAMCD is not present","not_exists(PARAMCD)","2026-04-21T11:26:53Z",NA
"196","adam-v5.0","CDISC","ADaM-IG","1.0;1.1;1.2;1.3","Medium","predicate","value-populated-required","predicate",NA,NA,NA,NA,NA,NA,NA,"PARAM is not populated","empty(PARAM)","2026-04-21T17:32:45Z",NA
"197","adam-v5.0","CDISC","ADaM-IG","1.0;1.1;1.2;1.3","Medium","predicate","value-populated-required","predicate",NA,NA,NA,NA,NA,NA,NA,"PARAMCD is not populated","empty(PARAMCD)","2026-04-21T17:32:45Z",NA
"198","adam-v5.0","CDISC","ADaM-IG","1.0;1.1;1.2;1.3","Medium","narrative",NA,"narrative",NA,NA,NA,NA,NA,NA,NA,"AVAL is not present and AVALC is not present",NA,NA,NA
"199","adam-v5.0","CDISC","ADaM-IG","1.0;1.1;1.2;1.3","Medium","narrative",NA,"narrative",NA,NA,NA,NA,NA,NA,NA,"A variable is present in ADaM with the same name as a variable present in SDTM but the variables do not have identical data types",NA,NA,NA
"2","adam-v5.0","CDISC","ADaM-IG","1.0;1.1;1.2;1.3","Medium","narrative",NA,"narrative",NA,NA,NA,NA,NA,NA,NA,"A variable is present in ADaM with the same name as a variable present in SDTM but the variables do not have identical labels",NA,NA,NA
"20","adam-v5.0","CDISC","ADaM-IG","1.0;1.1;1.2;1.3","Medium","predicate","value-flag-yn","predicate",NA,NA,NA,NA,NA,NA,NA,"FASFL is present and has a value that is not Y or N","non_empty(FASFL) & is_not_contained_by(FASFL,Y,N)","2026-04-21T21:32:39Z",NA
"200","adam-v5.0","CDISC","ADaM-IG","1.0;1.1;1.2;1.3","Medium","narrative",NA,"narrative",NA,NA,NA,NA,NA,NA,NA,"A variable is present in ADaM with the same name as a variable defined in the ADaM IG but the variables do not have identical data types",NA,NA,NA
"201","adam-v5.0","CDISC","ADaM-IG","1.0;1.1;1.2;1.3","Medium","predicate","presence-pair","predicate",NA,NA,NA,NA,NA,"find",NA,"TRTAGyN is present and TRTAGy is not present","exists(TRTAGyN) & not_exists(TRTAGy)","2026-04-21T10:17:01Z","xx/y-indexed via expand: key"
"204","adam-v5.0","CDISC","ADaM-IG","1.0;1.1;1.2;1.3","Medium","predicate","adsl-dm-consistency","predicate",NA,NA,NA,NA,NA,NA,NA,"The value of ADSL.USUBJID is equal to the value of DM.USUBJID and ADSL.AGE is not equal to DM.AGE",NA,NA,NA
"205","adam-v5.0","CDISC","ADaM-IG","1.0;1.1;1.2;1.3","Medium","predicate","adsl-dm-consistency","predicate",NA,NA,NA,NA,NA,NA,NA,"The value of ADSL.USUBJID is equal to the value of DM.USUBJID and ADSL.AGEU is not equal to DM.AGEU",NA,NA,NA
"206","adam-v5.0","CDISC","ADaM-IG","1.0;1.1;1.2;1.3","Medium","predicate","adsl-dm-consistency","predicate",NA,NA,NA,NA,NA,NA,NA,"The value of ADSL.USUBJID is equal to the value of DM.USUBJID and ADSL.SEX is not equal to DM.SEX",NA,NA,NA
"207","adam-v5.0","CDISC","ADaM-IG","1.0;1.1;1.2;1.3","Medium","predicate","adsl-dm-consistency","predicate",NA,NA,NA,NA,NA,NA,NA,"The value of ADSL.USUBJID is equal to the value of DM.USUBJID and ADSL.RACE is not equal to DM.RACE",NA,NA,NA
"208","adam-v5.0","CDISC","ADaM-IG","1.0;1.1;1.2;1.3","Medium","predicate","adsl-dm-consistency","predicate",NA,NA,NA,NA,NA,NA,NA,"The value of ADSL.USUBJID is equal to the value of DM.USUBJID and ADSL.SUBJID is not equal to DM.SUBJID",NA,NA,NA
"209","adam-v5.0","CDISC","ADaM-IG","1.0;1.1;1.2;1.3","Medium","predicate","adsl-dm-consistency","predicate",NA,NA,NA,NA,NA,NA,NA,"The value of ADSL.USUBJID is equal to the value of DM.USUBJID and ADSL.SITEID is not equal to DM.SITEID",NA,NA,NA
"21","adam-v5.0","CDISC","ADaM-IG","1.0;1.1;1.2;1.3","Medium","predicate","value-flag-yn","predicate",NA,NA,NA,NA,NA,NA,NA,"ITTFL is present and has a value that is not Y or N","non_empty(ITTFL) & is_not_contained_by(ITTFL,Y,N)","2026-04-21T21:32:39Z",NA
"210","adam-v5.0","CDISC","ADaM-IG","1.0;1.1;1.2;1.3","Medium","predicate","adsl-dm-consistency","predicate",NA,NA,NA,NA,NA,NA,NA,"The value of ADSL.USUBJID is equal to the value of DM.USUBJID and ADSL.ARM is not equal to DM.ARM",NA,NA,NA
"211","adam-v5.0","CDISC","ADaM-IG","1.0;1.1;1.2;1.3","Medium","predicate","value-flag-value-or-null","predicate",NA,NA,NA,NA,NA,NA,NA,"ABLFN is not equal to 1 or null","expand: """" all: - operator: non_empty name: ABLFN - operator: is_not_contained_by name: ABLFN value: ['1']","2026-04-24T12:23:51Z",NA
"212","adam-v5.0","CDISC","ADaM-IG","1.0;1.1;1.2;1.3","Medium","predicate","value-flag-value-or-null","predicate",NA,NA,NA,NA,NA,NA,NA,"ANLzzFN is not equal to 1 or null where zz is a zero-padded two-digit integer [01-99]","expand: ""zz"" all: - operator: non_empty name: ANLzzFN - operator: is_not_contained_by name: ANLzzFN value: ['1']","2026-04-24T12:23:51Z",NA
"22","adam-v5.0","CDISC","ADaM-IG","1.0;1.1;1.2;1.3","Medium","predicate","value-flag-yn","predicate",NA,NA,NA,NA,NA,NA,NA,"PPROTFL is present and has a value that is not Y or N","non_empty(PPROTFL) & is_not_contained_by(PPROTFL,Y,N)","2026-04-21T21:32:39Z",NA
"221","adam-v5.0","CDISC","ADaM-IG","1.0","Medium","predicate","uniqueness-grouped-nested","predicate",NA,NA,NA,NA,NA,NA,NA,"Within a given value of PARAMCD, there is more than one value of AVALCATy for a given value of AVAL",NA,"2026-04-24T10:44:15Z",NA
"222","adam-v5.0","CDISC","ADaM-IG","1.0","Medium","predicate","uniqueness-grouped-nested","predicate",NA,NA,NA,NA,NA,NA,NA,"Within a given value of PARAMCD, there is more than one value of BASECATy for a given value of BASE and y",NA,"2026-04-24T10:44:15Z",NA
"223","adam-v5.0","CDISC","ADaM-IG","1.0;1.1;1.2;1.3","Medium","predicate","value-arith-check","predicate",NA,NA,NA,NA,NA,NA,NA,"Within a given value of PARAMCD for a subject, CHG is populated and is not equal to AVAL - BASE","is_not_diff(CHG,AVAL,BASE)","2026-04-21T16:38:04Z",NA
"224","adam-v5.0","CDISC","ADaM-IG","1.0","Medium","predicate","uniqueness-grouped-nested","predicate",NA,NA,NA,NA,NA,NA,NA,"Within a given value of PARAMCD, there is more than one value of CHGCATy for a given value of CHG and y",NA,"2026-04-24T10:44:15Z",NA
"225","adam-v5.0","CDISC","ADaM-IG","1.0;1.1;1.2;1.3","Medium","predicate","value-arith-check","predicate",NA,NA,NA,NA,NA,NA,NA,"Within a given value of PARAMCD for a subject, PCHG is populated and is not equal to ((AVAL - BASE)/BASE)*100","is_not_pct_diff(PCHG,AVAL,BASE)","2026-04-21T16:38:04Z",NA
"226","adam-v5.0","CDISC","ADaM-IG","1.0","Medium","predicate","uniqueness-grouped-nested","predicate",NA,NA,NA,NA,NA,NA,NA,"Within a given value of PARAMCD, there is more than one value of PCHGCATy for a given value of PCHG and y",NA,"2026-04-24T10:44:15Z",NA
"227","adam-v5.0","CDISC","ADaM-IG","1.0","Medium","predicate","uniqueness-grouped","predicate",NA,NA,NA,NA,NA,"unique",NA,"There is more than one value of TRTSEQP for a given value of TRTSEQPN","is_not_unique_relationship(TRTSEQPN,TRTSEQP)","2026-04-21T11:50:50Z",NA
"228","adam-v5.0","CDISC","ADaM-IG","1.0","Medium","predicate","uniqueness-grouped","predicate",NA,NA,NA,NA,NA,"unique",NA,"There is more than one value of TRTSEQPN for a given value of TRTSEQP","is_not_unique_relationship(TRTSEQP,TRTSEQPN)","2026-04-21T11:50:50Z",NA
"229","adam-v5.0","CDISC","ADaM-IG","1.0","Medium","predicate","uniqueness-grouped","predicate",NA,NA,NA,NA,NA,"unique",NA,"There is more than one value of TRTSEQA for a given value of TRTSEQAN","is_not_unique_relationship(TRTSEQAN,TRTSEQA)","2026-04-21T11:50:50Z",NA
"23","adam-v5.0","CDISC","ADaM-IG","1.0;1.1;1.2;1.3","Medium","predicate","value-flag-yn","predicate",NA,NA,NA,NA,NA,NA,NA,"SAFFL is present and has a value that is not Y or N","non_empty(SAFFL) & is_not_contained_by(SAFFL,Y,N)","2026-04-21T21:32:39Z",NA
"230","adam-v5.0","CDISC","ADaM-IG","1.0","Medium","predicate","uniqueness-grouped","predicate",NA,NA,NA,NA,NA,"unique",NA,"There is more than one value of TRTSEQAN for a given value of TRTSEQA","is_not_unique_relationship(TRTSEQA,TRTSEQAN)","2026-04-21T11:50:50Z",NA
"231","adam-v5.0","CDISC","ADaM-IG","1.0","Medium","predicate","uniqueness-grouped-nested","predicate",NA,NA,NA,NA,NA,NA,NA,"Within a given value of TRTxxP, there is more than one value of TRxxPGy, where xx is an integer [01-99, zero-padded] and y is a single-digit integer [1-9]",NA,"2026-04-24T10:44:15Z",NA
"232","adam-v5.0","CDISC","ADaM-IG","1.0","Medium","predicate","uniqueness-grouped","predicate",NA,NA,NA,NA,NA,NA,NA,"There is more than one value of TRxxPGy for a given value of TRxxPGyN, where xx is an integer [01-99, zero-padded] and y is a single-digit integer [1-9]","expand: ""xx,y"" all: - name: TRxxPGyN operator: is_not_unique_relationship value: related_name: TRxxPGy","2026-04-24T12:51:23Z",NA
"233","adam-v5.0","CDISC","ADaM-IG","1.0","Medium","predicate","uniqueness-grouped","predicate",NA,NA,NA,NA,NA,NA,NA,"There is more than one value of TRxxPGyN for a given value of TRxxPGy, where xx is an integer [01-99, zero-padded] and y is a single-digit integer [1-9]","expand: ""xx,y"" all: - name: TRxxPGy operator: is_not_unique_relationship value: related_name: TRxxPGyN","2026-04-24T12:51:23Z",NA
"234","adam-v5.0","CDISC","ADaM-IG","1.0","Medium","predicate","uniqueness-grouped-nested","predicate",NA,NA,NA,NA,NA,NA,NA,"Within a given value of TRTxxA, there is more than one value of TRxxAGy, where xx is an integer [01-99, zero-padded] and y is a single-digit integer [1-9]",NA,"2026-04-24T10:44:15Z",NA
"235","adam-v5.0","CDISC","ADaM-IG","1.0","Medium","predicate","uniqueness-grouped","predicate",NA,NA,NA,NA,NA,NA,NA,"There is more than one value of TRxxAGy for a given value of TRxxAGyN, where xx is an integer [01-99, zero-padded] and y is a single-digit integer [1-9]","expand: ""xx,y"" all: - name: TRxxAGyN operator: is_not_unique_relationship value: related_name: TRxxAGy","2026-04-24T12:51:23Z",NA
"236","adam-v5.0","CDISC","ADaM-IG","1.0","Medium","predicate","uniqueness-grouped","predicate",NA,NA,NA,NA,NA,NA,NA,"There is more than one value of TRxxAGyN for a given value of TRxxAGy, where xx is an integer [01-99, zero-padded] and y is a single-digit integer [1-9]","expand: ""xx,y"" all: - name: TRxxAGy operator: is_not_unique_relationship value: related_name: TRxxAGyN","2026-04-24T12:51:23Z",NA
"237","adam-v5.0","CDISC","ADaM-IG","1.0","Medium","predicate","uniqueness-grouped","predicate",NA,NA,NA,NA,NA,NA,NA,"There is more than one value of TRTPGy for a given value of TRTPGyN, where y is a single-digit integer [1-9]","expand: ""y"" all: - name: TRTPGyN operator: is_not_unique_relationship value: related_name: TRTPGy","2026-04-24T12:51:23Z",NA
"238","adam-v5.0","CDISC","ADaM-IG","1.0","Medium","predicate","uniqueness-grouped","predicate",NA,NA,NA,NA,NA,NA,NA,"There is more than one value of TRTPGyN for a given value of TRTPGy, where y is a single-digit integer [1-9]","expand: ""y"" all: - name: TRTPGy operator: is_not_unique_relationship value: related_name: TRTPGyN","2026-04-24T12:51:23Z",NA
"239","adam-v5.0","CDISC","ADaM-IG","1.0","Medium","predicate","triple-presence-guard","predicate",NA,NA,NA,NA,NA,NA,NA,"TRTPGy is present and TRTA is present but TRTAGy is not present, where y is a single-digit integer [1-9]","expand: ""y"" all: - name: TRTPGy operator: exists - name: TRTA operator: exists - name: TRTAGy operator: not_exists","2026-04-24T12:51:37Z",NA
"24","adam-v5.0","CDISC","ADaM-IG","1.0;1.1;1.2;1.3","Medium","predicate","value-flag-yn","predicate",NA,NA,NA,NA,NA,NA,NA,"RANDFL is present and has a value that is not Y or N","non_empty(RANDFL) & is_not_contained_by(RANDFL,Y,N)","2026-04-21T21:32:39Z",NA
"240","adam-v5.0","CDISC","ADaM-IG","1.0","Medium","predicate","uniqueness-grouped","predicate",NA,NA,NA,NA,NA,NA,NA,"There is more than one value of TRTAGy for a given value of TRTAGyN, where y is a single-digit integer [1-9]","expand: ""y"" all: - name: TRTAGyN operator: is_not_unique_relationship value: related_name: TRTAGy","2026-04-24T12:51:23Z",NA
"241","adam-v5.0","CDISC","ADaM-IG","1.0","Medium","predicate","uniqueness-grouped","predicate",NA,NA,NA,NA,NA,NA,NA,"There is more than one value of TRTAGyN for a given value of TRTAGy, where y is a single-digit integer [1-9]","expand: ""y"" all: - name: TRTAGy operator: is_not_unique_relationship value: related_name: TRTAGyN","2026-04-24T12:51:23Z",NA
"242","adam-v5.0","CDISC","ADaM-IG","1.0","Medium","predicate","uniqueness-grouped","predicate",NA,NA,NA,NA,NA,NA,NA,"There is more than one value of TRTxxAN for a given value of TRTxxA, where xx is an integer [01-99, zero-padded]","expand: ""xx"" all: - name: TRTxxA operator: is_not_unique_relationship value: related_name: TRTxxAN","2026-04-24T12:51:23Z",NA
"243","adam-v5.0","CDISC","ADaM-IG","1.0","Medium","predicate","uniqueness-grouped","predicate",NA,NA,NA,NA,NA,NA,NA,"There is more than one value of TRTxxA for a given value of TRTxxAN, where xx is an integer [01-99, zero-padded]","expand: ""xx"" all: - name: TRTxxAN operator: is_not_unique_relationship value: related_name: TRTxxA","2026-04-24T12:51:23Z",NA
"25","adam-v5.0","CDISC","ADaM-IG","1.0;1.1;1.2;1.3","Medium","predicate","value-flag-yn","predicate",NA,NA,NA,NA,NA,NA,NA,"ENRLFL is present and has a value that is not Y or N","non_empty(ENRLFL) & is_not_contained_by(ENRLFL,Y,N)","2026-04-21T21:32:39Z",NA
"252","adam-v5.0","CDISC","ADaM-IG","1.0;1.1;1.2;1.3","Medium","narrative",NA,"narrative",NA,NA,NA,NA,NA,NA,NA,"AVAL is present or AVALC is present",NA,NA,NA
"254","adam-v5.0","CDISC","ADaM-IG","1.0;1.1;1.2;1.3","Medium","narrative",NA,"narrative",NA,NA,NA,NA,NA,NA,NA,"PARAM is present",NA,NA,NA
"256","adam-v5.0","CDISC","ADaM-IG","1.0;1.1;1.2;1.3","Medium","narrative",NA,"narrative",NA,NA,NA,NA,NA,NA,NA,"The values of USUBJID are not present in ADSL",NA,NA,NA
"26","adam-v5.0","CDISC","ADaM-IG","1.0;1.1;1.2;1.3","Medium","predicate","value-flag-fn","predicate",NA,NA,NA,NA,NA,NA,NA,"COMPLFN is present and has a value that is not 1 or 0","all: - operator: non_empty name: %var% - operator: is_not_contained_by name: %var% value: [""1"", ""0""]","2026-04-24T11:15:15Z",NA
"261","adam-v5.0","CDISC","ADaM-IG","1.0;1.1;1.2;1.3","Medium","predicate","presence-required","predicate",NA,NA,NA,NA,NA,"required",NA,"AEDECOD is not present","not_exists(AEDECOD)","2026-04-21T11:26:53Z",NA
"262","adam-v5.0","CDISC","ADaM-IG","1.0;1.1;1.2;1.3","Medium","predicate","presence-required","predicate",NA,NA,NA,NA,NA,"required",NA,"AEBODSYS is not present","not_exists(AEBODSYS)","2026-04-21T11:26:53Z",NA
"268","adam-v5.0","CDISC","ADaM-IG","1.0;1.1;1.2;1.3","Medium","predicate","value-conditional-populated","predicate",NA,NA,NA,NA,NA,"condition",NA,"ADURN is populated and ADURU is not populated","non_empty(ADURN) & empty(ADURU)","2026-04-21T11:35:41Z",NA
"269","adam-v5.0","CDISC","ADaM-IG","1.0;1.1;1.2;1.3","Medium","predicate","value-flag-value-or-null","predicate",NA,NA,NA,NA,NA,NA,NA,"TRTEMFL is not equal to Y or null","expand: """" all: - operator: non_empty name: TRTEMFL - operator: is_not_contained_by name: TRTEMFL value: ['Y']","2026-04-24T12:23:51Z",NA
"27","adam-v5.0","CDISC","ADaM-IG","1.0;1.1;1.2;1.3","Medium","predicate","value-flag-fn","predicate",NA,NA,NA,NA,NA,NA,NA,"FASFN is present and has a value that is not 1 or 0","all: - operator: non_empty name: %var% - operator: is_not_contained_by name: %var% value: [""1"", ""0""]","2026-04-24T11:15:15Z",NA
"270","adam-v5.0","CDISC","ADaM-IG","1.0;1.1;1.2;1.3","Medium","predicate","value-flag-value-or-null","predicate",NA,NA,NA,NA,NA,NA,NA,"PREFL is not equal to Y or null","expand: """" all: - operator: non_empty name: PREFL - operator: is_not_contained_by name: PREFL value: ['Y']","2026-04-24T12:23:51Z",NA
"271","adam-v5.0","CDISC","ADaM-IG","1.0;1.1;1.2;1.3","Medium","predicate","value-flag-value-or-null","predicate",NA,NA,NA,NA,NA,NA,NA,"FUPFL is not equal to Y or null","expand: """" all: - operator: non_empty name: FUPFL - operator: is_not_contained_by name: FUPFL value: ['Y']","2026-04-24T12:23:51Z",NA
"272","adam-v5.0","CDISC","ADaM-IG","1.0;1.1;1.2;1.3","Medium","predicate","value-flag-value-or-null","predicate",NA,NA,NA,NA,NA,NA,NA,"A variable with a prefix of AOCC and a suffix of FL is not equal to Y or null","expand: ""zz"" all: - operator: non_empty name: AOCCzzFL - operator: is_not_contained_by name: AOCCzzFL value: ['Y']","2026-04-24T13:16:38Z",NA
"278","adam-v5.0","CDISC","ADaM-IG","1.0;1.1;1.2;1.3","Medium","predicate","presence-required","predicate",NA,NA,NA,NA,NA,"required",NA,"AESER is not present","not_exists(AESER)","2026-04-21T11:26:53Z",NA
"279","adam-v5.0","CDISC","ADaM-IG","1.0;1.1;1.2;1.3","Medium","predicate","value-flag-value-or-null","predicate",NA,NA,NA,NA,NA,NA,NA,"AESEVN is not equal to 1, 2, 3, or null","expand: """" all: - operator: non_empty name: AESEVN - operator: is_not_contained_by name: AESEVN value: ['1', '2', '3']","2026-04-24T12:23:51Z",NA
"28","adam-v5.0","CDISC","ADaM-IG","1.0;1.1;1.2;1.3","Medium","predicate","value-flag-fn","predicate",NA,NA,NA,NA,NA,NA,NA,"ITTFN is present and has a value that is not 1 or 0","all: - operator: non_empty name: %var% - operator: is_not_contained_by name: %var% value: [""1"", ""0""]","2026-04-24T11:15:15Z",NA
"280","adam-v5.0","CDISC","ADaM-IG","1.0","Medium","predicate","uniqueness-grouped","predicate",NA,NA,NA,NA,NA,"unique",NA,"There is more than one value of AESEV for a given value of AESEVN","is_not_unique_relationship(AESEVN,AESEV)","2026-04-21T11:50:50Z",NA
"281","adam-v5.0","CDISC","ADaM-IG","1.0","Medium","predicate","uniqueness-grouped","predicate",NA,NA,NA,NA,NA,"unique",NA,"There is more than one value of AESEVN for a given value of AESEV","is_not_unique_relationship(AESEV,AESEVN)","2026-04-21T11:50:50Z",NA
"282","adam-v5.0","CDISC","ADaM-IG","1.0;1.1;1.2;1.3","Medium","predicate","value-flag-value-or-null","predicate",NA,NA,NA,NA,NA,NA,NA,"ASEVN is not equal to 1, 2, 3, or null","expand: """" all: - operator: non_empty name: ASEVN - operator: is_not_contained_by name: ASEVN value: ['1', '2', '3']","2026-04-24T12:23:51Z",NA
"283","adam-v5.0","CDISC","ADaM-IG","1.0","Medium","predicate","uniqueness-grouped","predicate",NA,NA,NA,NA,NA,"unique",NA,"There is more than one value of ASEV for a given value of ASEVN","is_not_unique_relationship(ASEVN,ASEV)","2026-04-21T11:50:50Z",NA
"284","adam-v5.0","CDISC","ADaM-IG","1.0","Medium","predicate","uniqueness-grouped","predicate",NA,NA,NA,NA,NA,"unique",NA,"There is more than one value of ASEVN for a given value of ASEV","is_not_unique_relationship(ASEV,ASEVN)","2026-04-21T11:50:50Z",NA
"285","adam-v5.0","CDISC","ADaM-IG","1.0","Medium","predicate","uniqueness-grouped","predicate",NA,NA,NA,NA,NA,NA,NA,"There is more than one value of SEVGRy for a given value of SEVGRyN","is_not_unique_relationship(SEVGRyN,SEVGRy)","2026-04-21T15:33:29Z",NA
"286","adam-v5.0","CDISC","ADaM-IG","1.0","Medium","predicate","uniqueness-grouped","predicate",NA,NA,NA,NA,NA,NA,NA,"There is more than one value of SEVGRyN for a given value of SEVGRy","is_not_unique_relationship(SEVGRy,SEVGRyN)","2026-04-21T15:33:29Z",NA
"287","adam-v5.0","CDISC","ADaM-IG","1.0","Medium","predicate","uniqueness-grouped","predicate",NA,NA,NA,NA,NA,"unique",NA,"There is more than one value of AEREL for a given value of AERELN","is_not_unique_relationship(AERELN,AEREL)","2026-04-21T11:50:50Z",NA
"288","adam-v5.0","CDISC","ADaM-IG","1.0","Medium","predicate","uniqueness-grouped","predicate",NA,NA,NA,NA,NA,"unique",NA,"There is more than one value of AERELN for a given value of AEREL","is_not_unique_relationship(AEREL,AERELN)","2026-04-21T11:50:50Z",NA
"289","adam-v5.0","CDISC","ADaM-IG","1.0","Medium","predicate","uniqueness-grouped","predicate",NA,NA,NA,NA,NA,"unique",NA,"There is more than one value of AREL for a given value of ARELN","is_not_unique_relationship(ARELN,AREL)","2026-04-21T11:50:50Z",NA
"29","adam-v5.0","CDISC","ADaM-IG","1.0;1.1;1.2;1.3","Medium","predicate","value-flag-fn","predicate",NA,NA,NA,NA,NA,NA,NA,"PPROTFN is present and has a value that is not 1 or 0","all: - operator: non_empty name: %var% - operator: is_not_contained_by name: %var% value: [""1"", ""0""]","2026-04-24T11:15:15Z",NA
"290","adam-v5.0","CDISC","ADaM-IG","1.0","Medium","predicate","uniqueness-grouped","predicate",NA,NA,NA,NA,NA,"unique",NA,"There is more than one value of ARELN for a given value of AREL","is_not_unique_relationship(AREL,ARELN)","2026-04-21T11:50:50Z",NA
"291","adam-v5.0","CDISC","ADaM-IG","1.0","Medium","predicate","uniqueness-grouped","predicate",NA,NA,NA,NA,NA,NA,NA,"There is more than one value of RELGRy for a given value of RELGRyN","is_not_unique_relationship(RELGRyN,RELGRy)","2026-04-21T15:33:29Z",NA
"292","adam-v5.0","CDISC","ADaM-IG","1.0","Medium","predicate","uniqueness-grouped","predicate",NA,NA,NA,NA,NA,NA,NA,"There is more than one value of RELGRyN for a given value of RELGRy","is_not_unique_relationship(RELGRy,RELGRyN)","2026-04-21T15:33:29Z",NA
"293","adam-v5.0","CDISC","ADaM-IG","1.0","Medium","predicate","uniqueness-grouped","predicate",NA,NA,NA,NA,NA,"unique",NA,"There is more than one value of AETOXGR for a given value of AETOXGRN","is_not_unique_relationship(AETOXGRN,AETOXGR)","2026-04-21T11:50:50Z",NA
"294","adam-v5.0","CDISC","ADaM-IG","1.0","Medium","predicate","uniqueness-grouped","predicate",NA,NA,NA,NA,NA,"unique",NA,"There is more than one value of AETOXGRN for a given value of AETOXGR","is_not_unique_relationship(AETOXGR,AETOXGRN)","2026-04-21T11:50:50Z",NA
"295","adam-v5.0","CDISC","ADaM-IG","1.0","Medium","predicate","uniqueness-grouped","predicate",NA,NA,NA,NA,NA,"unique",NA,"There is more than one value of ATOXGR for a given value of ATOXGRN","is_not_unique_relationship(ATOXGRN,ATOXGR)","2026-04-21T11:50:50Z",NA
"296","adam-v5.0","CDISC","ADaM-IG","1.0","Medium","predicate","uniqueness-grouped","predicate",NA,NA,NA,NA,NA,"unique",NA,"There is more than one value of ATOXGRN for a given value of ATOXGR","is_not_unique_relationship(ATOXGR,ATOXGRN)","2026-04-21T11:50:50Z",NA
"297","adam-v5.0","CDISC","ADaM-IG","1.0","Medium","predicate","uniqueness-grouped","predicate",NA,NA,NA,NA,NA,NA,NA,"There is more than one value of TOXGGRy for a given value of TOXGGRyN","is_not_unique_relationship(TOXGGRyN,TOXGGRy)","2026-04-21T15:33:29Z",NA
"298","adam-v5.0","CDISC","ADaM-IG","1.0","Medium","predicate","uniqueness-grouped","predicate",NA,NA,NA,NA,NA,NA,NA,"There is more than one value of TOXGGRyN for a given value of TOXGGRy","is_not_unique_relationship(TOXGGRy,TOXGGRyN)","2026-04-21T15:33:29Z",NA
"30","adam-v5.0","CDISC","ADaM-IG","1.0;1.1;1.2;1.3","Medium","predicate","value-flag-fn","predicate",NA,NA,NA,NA,NA,NA,NA,"SAFFN is present and has a value that is not 1 or 0","all: - operator: non_empty name: %var% - operator: is_not_contained_by name: %var% value: [""1"", ""0""]","2026-04-24T11:15:15Z",NA
"304","adam-v5.0","CDISC","ADaM-IG","1.0;1.1;1.2;1.3","Medium","predicate","value-conditional-populated-required","predicate",NA,NA,NA,NA,NA,NA,NA,"SMQzzNAM is populated and SMQzzCD is not populated","expand: ""zz"" all: - operator: non_empty name: SMQzzNAM - operator: empty name: SMQzzCD","2026-04-24T12:51:28Z",NA
"305","adam-v5.0","CDISC","ADaM-IG","1.0;1.1;1.2;1.3","Medium","predicate","value-conditional-populated-required","predicate",NA,NA,NA,NA,NA,NA,NA,"SMQzzNAM is populated and SMQzzSC is not populated","expand: ""zz"" all: - operator: non_empty name: SMQzzNAM - operator: empty name: SMQzzSC","2026-04-24T12:51:28Z",NA
"306","adam-v5.0","CDISC","ADaM-IG","1.0;1.1;1.2;1.3","Medium","predicate","value-conditional-populated-required","predicate",NA,NA,NA,NA,NA,NA,NA,"SMQzzCD is populated and SMQzzNAM is not populated","expand: ""zz"" all: - operator: non_empty name: SMQzzCD - operator: empty name: SMQzzNAM","2026-04-24T12:51:28Z",NA
"307","adam-v5.0","CDISC","ADaM-IG","1.0;1.1;1.2;1.3","Medium","predicate","value-conditional-populated-required","predicate",NA,NA,NA,NA,NA,NA,NA,"SMQzzCD is populated and SMQzzSC is not populated","expand: ""zz"" all: - operator: non_empty name: SMQzzCD - operator: empty name: SMQzzSC","2026-04-24T12:51:28Z",NA
"308","adam-v5.0","CDISC","ADaM-IG","1.0;1.1;1.2;1.3","Medium","predicate","value-conditional-populated-required","predicate",NA,NA,NA,NA,NA,NA,NA,"SMQzzSC is populated and SMQzzNAM is not populated","expand: ""zz"" all: - operator: non_empty name: SMQzzSC - operator: empty name: SMQzzNAM","2026-04-24T12:51:28Z",NA
"309","adam-v5.0","CDISC","ADaM-IG","1.0;1.1;1.2;1.3","Medium","predicate","value-conditional-populated-required","predicate",NA,NA,NA,NA,NA,NA,NA,"SMQzzSC is populated and SMQzzCD is not populated","expand: ""zz"" all: - operator: non_empty name: SMQzzSC - operator: empty name: SMQzzCD","2026-04-24T12:51:28Z",NA
"31","adam-v5.0","CDISC","ADaM-IG","1.0;1.1;1.2;1.3","Medium","predicate","value-flag-fn","predicate",NA,NA,NA,NA,NA,NA,NA,"RANDFN is present and has a value that is not 1 or 0","all: - operator: non_empty name: %var% - operator: is_not_contained_by name: %var% value: [""1"", ""0""]","2026-04-24T11:15:15Z",NA
"310","adam-v5.0","CDISC","ADaM-IG","1.0","Medium","predicate","uniqueness-grouped","predicate",NA,NA,NA,NA,NA,NA,NA,"There is more than one value of SMQzzSC for a given value of SMQzzSCN","is_not_unique_relationship(SMQzzSCN,SMQzzSC)","2026-04-21T15:33:29Z",NA
"311","adam-v5.0","CDISC","ADaM-IG","1.0","Medium","predicate","uniqueness-grouped","predicate",NA,NA,NA,NA,NA,NA,NA,"There is more than one value of SMQzzSCN for a given value of SMQzzSC","is_not_unique_relationship(SMQzzSC,SMQzzSCN)","2026-04-21T15:33:29Z",NA
"312","adam-v5.0","CDISC","ADaM-IG","1.0;1.1;1.2;1.3","Medium","predicate","value-flag-value-or-null","predicate",NA,NA,NA,NA,NA,NA,NA,"SMQzzSC is not equal to BROAD or NARROW, where zz is a zero-padded two-digit integer [01-99]","expand: ""zz"" all: - operator: non_empty name: SMQzzSC - operator: is_not_contained_by name: SMQzzSC value: ['BROAD', 'NARROW']","2026-04-24T12:23:51Z",NA
"313","adam-v5.0","CDISC","ADaM-IG","1.0;1.1;1.2;1.3","Medium","predicate","value-flag-value-or-null","predicate",NA,NA,NA,NA,NA,NA,NA,"SMQzzSCN is not equal to 1 or 2, where zz is a zero-padded two-digit integer [01-99]","expand: ""zz"" all: - operator: non_empty name: SMQzzSCN - operator: is_not_contained_by name: SMQzzSCN value: ['1', '2']","2026-04-24T12:23:51Z",NA
"32","adam-v5.0","CDISC","ADaM-IG","1.0;1.1;1.2;1.3","Medium","predicate","value-flag-fn","predicate",NA,NA,NA,NA,NA,NA,NA,"ENRLFN is present and has a value that is not 1 or 0","all: - operator: non_empty name: %var% - operator: is_not_contained_by name: %var% value: [""1"", ""0""]","2026-04-24T11:15:15Z",NA
"320","adam-v5.0","CDISC","ADaM-IG","1.0;1.1;1.2;1.3","Medium","predicate","dataset-label-match","predicate",NA,NA,NA,NA,NA,NA,NA,"A dataset is named ADSL and the dataset label is not ""Subject-Level Analysis Dataset""","dataset_label_not(Subject-Level Analysis Dataset)","2026-04-21T20:10:58Z",NA
"321","adam-v5.0","CDISC","ADaM-IG","1.0;1.1;1.2;1.3","Medium","narrative",NA,"narrative",NA,NA,NA,NA,NA,NA,NA,"A dataset label is ""Subject-Level Analysis Dataset"" and the dataset is not named ADSL",NA,NA,NA
"322","adam-v5.0","CDISC","ADaM-IG","1.1;1.2;1.3","Medium","predicate","uniqueness-grouped-nested","predicate",NA,NA,NA,NA,NA,NA,NA,"Within a given value of TRTP, there is more than one value of TRTPGy, where y is an integer [1-99, not zero-padded]",NA,"2026-04-24T10:44:15Z",NA
"323","adam-v5.0","CDISC","ADaM-IG","1.1;1.2;1.3","Medium","predicate","uniqueness-grouped","predicate",NA,NA,NA,NA,NA,NA,NA,"Within a study, there is more than one value of APHASEN for a given value of APHASE, considering only those rows on which both variables are populated","expand: """" all: - name: APHASE operator: is_not_unique_relationship value: related_name: APHASEN","2026-04-24T12:51:23Z",NA
"324","adam-v5.0","CDISC","ADaM-IG","1.1;1.2;1.3","Medium","predicate","uniqueness-grouped","predicate",NA,NA,NA,NA,NA,NA,NA,"Within a study, there is more than one value of APHASE for a given value of APHASEN, considering only those rows on which both variables are populated","expand: """" all: - name: APHASEN operator: is_not_unique_relationship value: related_name: APHASE","2026-04-24T12:51:23Z",NA
"325","adam-v5.0","CDISC","ADaM-IG","1.1;1.2;1.3","Medium","predicate","uniqueness-grouped-nested","predicate",NA,NA,NA,NA,NA,NA,NA,"Within a value of APERIOD, there is more than one value of ASPER for a given value of ASPERC, considering only those rows on which both variables are populated","operator: is_not_unique_relationship name: ASPERC value: related_name: ASPER group_by: - APERIOD","2026-04-24T12:51:26Z",NA
"326","adam-v5.0","CDISC","ADaM-IG","1.1;1.2;1.3","Medium","predicate","uniqueness-grouped-nested","predicate",NA,NA,NA,NA,NA,NA,NA,"Within a value of APERIOD, there is more than one value of ASPERC for a given value of ASPER, considering only those rows on which both variables are populated","operator: is_not_unique_relationship name: ASPER value: related_name: ASPERC group_by: - APERIOD","2026-04-24T12:51:26Z",NA
"327","adam-v5.0","CDISC","ADaM-IG","1.1;1.2;1.3","Medium","predicate","paired-var-consistency-param","predicate",NA,NA,NA,NA,NA,NA,NA,"Within a parameter, there is more than one value of AVALCATy for a given value of AVALCAyN, considering only those rows on which both variables are populated","is_not_unique_relationship(AVALCAyN,AVALCATy,PARAMCD)","2026-04-21T21:48:40Z",NA
"328","adam-v5.0","CDISC","ADaM-IG","1.1;1.2;1.3","Medium","predicate","paired-var-consistency-param","predicate",NA,NA,NA,NA,NA,NA,NA,"Within a parameter, there is more than one value of AVALCAyN for a given value of AVALCATy, considering only those rows on which both variables are populated","is_not_unique_relationship(AVALCATy,AVALCAyN,PARAMCD)","2026-04-21T21:48:40Z",NA
"329","adam-v5.0","CDISC","ADaM-IG","1.1;1.2;1.3","Medium","predicate","paired-var-consistency-param","predicate",NA,NA,NA,NA,NA,NA,NA,"Within a parameter, there is more than one value of BASECATy for a given value of BASECAyN, considering only those rows on which both variables are populated","is_not_unique_relationship(BASECAyN,BASECATy,PARAMCD)","2026-04-21T21:48:40Z",NA
"33","adam-v5.0","CDISC","ADaM-IG","1.0;1.1","Medium","predicate","suffix-var-value-in-set","predicate",NA,NA,NA,NA,NA,NA,NA,"A variable with a suffix of RFL has a value that is not Y or null","all: - operator: is_not_contained_by name: stemRFL value: ['Y']","2026-04-24T11:15:10Z",NA
"330","adam-v5.0","CDISC","ADaM-IG","1.1;1.2;1.3","Medium","predicate","paired-var-consistency-param","predicate",NA,NA,NA,NA,NA,NA,NA,"Within a parameter, there is more than one value of BASECAyN for a given value of BASECATy, considering only those rows on which both variables are populated","is_not_unique_relationship(BASECATy,BASECAyN,PARAMCD)","2026-04-21T21:48:40Z",NA
"331","adam-v5.0","CDISC","ADaM-IG","1.1;1.2;1.3","Medium","predicate","paired-var-consistency-param","predicate",NA,NA,NA,NA,NA,NA,NA,"Within a parameter, there is more than one value of CHGCATy for a given value of CHGCATyN, considering only those rows on which both variables are populated","is_not_unique_relationship(CHGCATyN,CHGCATy,PARAMCD)","2026-04-21T21:48:40Z",NA
"332","adam-v5.0","CDISC","ADaM-IG","1.1;1.2;1.3","Medium","predicate","paired-var-consistency-param","predicate",NA,NA,NA,NA,NA,NA,NA,"Within a parameter, there is more than one value of CHGCATyN for a given value of CHGCATy, considering only those rows on which both variables are populated","is_not_unique_relationship(CHGCATy,CHGCATyN,PARAMCD)","2026-04-21T21:48:40Z",NA
"333","adam-v5.0","CDISC","ADaM-IG","1.1;1.2;1.3","Medium","predicate","paired-var-consistency-param","predicate",NA,NA,NA,NA,NA,NA,NA,"Within a parameter, there is more than one value of PCHGCATy for a given value of PCHGCAyN, considering only those rows on which both variables are populated","is_not_unique_relationship(PCHGCAyN,PCHGCATy,PARAMCD)","2026-04-21T21:48:40Z",NA
"334","adam-v5.0","CDISC","ADaM-IG","1.1;1.2;1.3","Medium","predicate","paired-var-consistency-param","predicate",NA,NA,NA,NA,NA,NA,NA,"Within a parameter, there is more than one value of PCHGCAyN for a given value of PCHGCATy, considering only those rows on which both variables are populated","is_not_unique_relationship(PCHGCATy,PCHGCAyN,PARAMCD)","2026-04-21T21:48:40Z",NA
"335","adam-v5.0","CDISC","ADaM-IG","1.0;1.1;1.2;1.3","Medium","predicate","presence-pair","predicate",NA,NA,NA,NA,NA,NA,NA,"CRITyFL is present and CRITy is not present","expand: ""y"" all: - name: CRITyFL operator: exists - name: CRITy operator: not_exists","2026-04-24T12:24:16Z",NA
"336","adam-v5.0","CDISC","ADaM-IG","1.0;1.1;1.2;1.3","Medium","predicate","presence-pair","predicate",NA,NA,NA,NA,NA,NA,NA,"CRITy is present and CRITyFL is not present","expand: ""y"" all: - name: CRITy operator: exists - name: CRITyFL operator: not_exists","2026-04-24T12:24:16Z",NA
"337","adam-v5.0","CDISC","ADaM-IG","1.1;1.2;1.3","Medium","predicate","presence-pair","predicate",NA,NA,NA,NA,NA,NA,NA,"MCRITyML is present and MCRITy is not present","expand: ""y"" all: - name: MCRITyML operator: exists - name: MCRITy operator: not_exists","2026-04-24T12:24:16Z",NA
"338","adam-v5.0","CDISC","ADaM-IG","1.1;1.2;1.3","Medium","predicate","presence-pair","predicate",NA,NA,NA,NA,NA,NA,NA,"MCRITy is present and MCRITyML is not present","expand: ""y"" all: - name: MCRITy operator: exists - name: MCRITyML operator: not_exists","2026-04-24T12:24:16Z",NA
"339","adam-v5.0","CDISC","ADaM-IG","1.1;1.2;1.3","Medium","predicate","value-conditional-populated-required","predicate",NA,NA,NA,NA,NA,NA,NA,"MCRITyML is populated and MCRITy is not populated","expand: ""y"" all: - operator: non_empty name: MCRITyML - operator: empty name: MCRITy","2026-04-24T12:24:07Z",NA
"34","adam-v5.0","CDISC","ADaM-IG","1.0;1.1","Medium","predicate","suffix-var-value-in-set","predicate",NA,NA,NA,NA,NA,NA,NA,"A variable with a suffix of PFL has a value that is not Y or null","all: - operator: is_not_contained_by name: stemPFL value: ['Y']","2026-04-24T11:15:10Z",NA
"340","adam-v5.0","CDISC","ADaM-IG","1.1;1.2;1.3","Medium","predicate","paired-var-consistency-param","predicate",NA,NA,NA,NA,NA,NA,NA,"Within a parameter, there is more than one value of MCRITyML for a given value of MCRITyMN, considering only those rows on which both variables are populated","is_not_unique_relationship(MCRITyMN,MCRITyML,PARAMCD)","2026-04-21T21:48:40Z",NA
"341","adam-v5.0","CDISC","ADaM-IG","1.1;1.2;1.3","Medium","predicate","paired-var-consistency-param","predicate",NA,NA,NA,NA,NA,NA,NA,"Within a parameter, there is more than one value of MCRITyMN for a given value of MCRITyML, considering only those rows on which both variables are populated","is_not_unique_relationship(MCRITyML,MCRITyMN,PARAMCD)","2026-04-21T21:48:40Z",NA
"342","adam-v5.0","CDISC","ADaM-IG","1.1;1.2;1.3","Medium","predicate","paired-var-consistency-param","predicate",NA,NA,NA,NA,NA,NA,NA,"Within a parameter, there is more than one value of ANRLO for a given value of ANRLOC","is_not_unique_relationship(ANRLOC,ANRLO,PARAMCD)","2026-04-21T21:48:40Z",NA
"343","adam-v5.0","CDISC","ADaM-IG","1.1;1.2;1.3","Medium","predicate","paired-var-consistency-param","predicate",NA,NA,NA,NA,NA,NA,NA,"Within a parameter, there is more than one value of ANRLOC for a given value of ANRLO","is_not_unique_relationship(ANRLO,ANRLOC,PARAMCD)","2026-04-21T21:48:40Z",NA
"344","adam-v5.0","CDISC","ADaM-IG","1.1;1.2;1.3","Medium","predicate","paired-var-consistency-param","predicate",NA,NA,NA,NA,NA,NA,NA,"Within a parameter, there is more than one value of ANRHI for a given value of ANRHIC","is_not_unique_relationship(ANRHIC,ANRHI,PARAMCD)","2026-04-21T21:48:40Z",NA
"345","adam-v5.0","CDISC","ADaM-IG","1.1;1.2;1.3","Medium","predicate","paired-var-consistency-param","predicate",NA,NA,NA,NA,NA,NA,NA,"Within a parameter, there is more than one value of ANRHIC for a given value of ANRHI","is_not_unique_relationship(ANRHI,ANRHIC,PARAMCD)","2026-04-21T21:48:40Z",NA
"346","adam-v5.0","CDISC","ADaM-IG","1.1;1.2;1.3","Medium","predicate","presence-pair","predicate",NA,NA,NA,NA,NA,NA,NA,"R2AyLO is present and AyLO is not present","expand: ""y"" all: - name: R2AyLO operator: exists - name: AyLO operator: not_exists","2026-04-24T12:24:16Z",NA
"347","adam-v5.0","CDISC","ADaM-IG","1.1;1.2;1.3","Medium","predicate","paired-var-consistency-param","predicate",NA,NA,NA,NA,NA,NA,NA,"Within a parameter, there is more than one value of AyLO for a given value of AyLOC","is_not_unique_relationship(AyLOC,AyLO,PARAMCD)","2026-04-21T21:48:40Z",NA
"348","adam-v5.0","CDISC","ADaM-IG","1.1;1.2;1.3","Medium","predicate","paired-var-consistency-param","predicate",NA,NA,NA,NA,NA,NA,NA,"Within a parameter, there is more than one value of AyLOC for a given value of AyLO","is_not_unique_relationship(AyLO,AyLOC,PARAMCD)","2026-04-21T21:48:40Z",NA
"349","adam-v5.0","CDISC","ADaM-IG","1.1;1.2;1.3","Medium","predicate","presence-pair","predicate",NA,NA,NA,NA,NA,NA,NA,"R2AyHI is present and AyHI is not present","expand: ""y"" all: - name: R2AyHI operator: exists - name: AyHI operator: not_exists","2026-04-24T12:24:16Z",NA
"35","adam-v5.0","CDISC","ADaM-IG","1.0;1.1","Medium","predicate","suffix-var-value-in-set","predicate",NA,NA,NA,NA,NA,NA,NA,"A variable with a suffix of RFN has a value that is not 1 or null","all: - operator: is_not_contained_by name: stemRFN value: ['1']","2026-04-24T11:15:10Z",NA
"350","adam-v5.0","CDISC","ADaM-IG","1.1;1.2;1.3","Medium","predicate","paired-var-consistency-param","predicate",NA,NA,NA,NA,NA,NA,NA,"Within a parameter, there is more than one value of AyHI for a given value of AyHIC","is_not_unique_relationship(AyHIC,AyHI,PARAMCD)","2026-04-21T21:48:40Z",NA
"351","adam-v5.0","CDISC","ADaM-IG","1.1;1.2;1.3","Medium","predicate","paired-var-consistency-param","predicate",NA,NA,NA,NA,NA,NA,NA,"Within a parameter, there is more than one value of AyHIC for a given value of AyHI","is_not_unique_relationship(AyHI,AyHIC,PARAMCD)","2026-04-21T21:48:40Z",NA
"352","adam-v5.0","CDISC","ADaM-IG","1.1;1.2;1.3","Medium","narrative",NA,"narrative",NA,NA,NA,NA,NA,NA,NA,"AyIND is present and AyLO, AyHI, AyLOC, and AyHIC are all not present",NA,NA,NA
"353","adam-v5.0","CDISC","ADaM-IG","1.1;1.2","Medium","narrative",NA,"narrative",NA,NA,NA,NA,NA,NA,NA,"BASETYPE is present, ByIND is populated, and ByIND is not equal to AyIND where ABLFL is equal to Y for a given value of PARAMCD and BASETYPE for a subject",NA,NA,NA
"354","adam-v5.0","CDISC","ADaM-IG","1.1;1.2;1.3","Medium","predicate","baseline-equals-abl-row","predicate",NA,NA,NA,NA,NA,NA,NA,"BASETYPE is not present, ByIND is populated, and ByIND is not equal to AyIND where ABLFL is equal to Y for a given value of PARAMCD for a subject","expand: ""y"" operator: base_not_equal_abl_row b_var: ByIND a_var: AyIND group_by: - USUBJID
- PARAMCD basetype_gate: absent","2026-04-24T11:33:50Z",NA
"355","adam-v5.0","CDISC","ADaM-IG","1.1;1.2;1.3","Medium","predicate","uniqueness-grouped","predicate",NA,NA,NA,NA,NA,NA,NA,"There is more than one value of REGIONy for a given value of REGIONyN, considering only those rows on which both variables are populated","expand: ""y"" all: - name: REGIONyN operator: is_not_unique_relationship value: related_name: REGIONy","2026-04-24T12:51:23Z",NA
"356","adam-v5.0","CDISC","ADaM-IG","1.1;1.2;1.3","Medium","predicate","uniqueness-grouped","predicate",NA,NA,NA,NA,NA,NA,NA,"There is more than one value of REGIONyN for a given value of REGIONy, considering only those rows on which both variables are populated","expand: ""y"" all: - name: REGIONy operator: is_not_unique_relationship value: related_name: REGIONyN","2026-04-24T12:51:23Z",NA
"359","adam-v5.0","CDISC","ADaM-IG","1.1;1.2;1.3","Medium","predicate","uniqueness-grouped","predicate",NA,NA,NA,NA,NA,"unique",NA,"There is more than one value of DTHCAUS for a given value of DTHCAUSN, considering only those rows on which both variables are populated","is_not_unique_relationship(DTHCAUSN,DTHCAUS)","2026-04-21T11:50:50Z",NA
"36","adam-v5.0","CDISC","ADaM-IG","1.0;1.1","Medium","predicate","suffix-var-value-in-set","predicate",NA,NA,NA,NA,NA,NA,NA,"A variable with a suffix of PFN has a value that is not 1 or null","all: - operator: is_not_contained_by name: stemPFN value: ['1']","2026-04-24T11:15:10Z",NA
"360","adam-v5.0","CDISC","ADaM-IG","1.1;1.2;1.3","Medium","predicate","uniqueness-grouped","predicate",NA,NA,NA,NA,NA,"unique",NA,"There is more than one value of DTHCAUSN for a given value of DTHCAUS, considering only those rows on which both variables are populated","is_not_unique_relationship(DTHCAUS,DTHCAUSN)","2026-04-21T11:50:50Z",NA
"361","adam-v5.0","CDISC","ADaM-IG","1.0;1.1;1.2;1.3","Medium","narrative",NA,"narrative",NA,NA,NA,NA,NA,NA,NA,"The value of ASTDT is greater than the value of AENDT, considering only those rows on which both variables are populated",NA,NA,NA
"362","adam-v5.0","CDISC","ADaM-IG","1.0;1.1;1.2;1.3","Medium","narrative",NA,"narrative",NA,NA,NA,NA,NA,NA,NA,"The value of ASTDTM is greater than the value of AENDTM, considering only those rows on which both variables are populated",NA,NA,NA
"363","adam-v5.0","CDISC","ADaM-IG","1.0;1.1","Medium","predicate","value-flag-value-or-null","predicate",NA,NA,NA,NA,NA,NA,NA,"ONTRTFL is not equal to Y or null","expand: """" all: - operator: non_empty name: ONTRTFL - operator: is_not_contained_by name: ONTRTFL value: ['Y']","2026-04-24T12:23:51Z",NA
"364","adam-v5.0","CDISC","ADaM-IG","1.1;1.2;1.3","Medium","narrative",NA,"narrative",NA,NA,NA,NA,NA,NA,NA,"DOSEON or DOSCUMA is present and DOSEU is not present",NA,NA,NA
"365","adam-v5.0","CDISC","ADaM-IG","1.0;1.1;1.2;1.3","Medium","narrative",NA,"narrative",NA,NA,NA,NA,NA,NA,NA,"SDTM.EX is present and neither TRTEDT or TRTEDTM are present",NA,NA,NA
"366","adam-v5.0","CDISC","ADaM-IG","1.0;1.1;1.2;1.3","Medium","narrative",NA,"narrative",NA,NA,NA,NA,NA,NA,NA,"RANDDT is not present when RANDFL is equal to Y for at least one record",NA,NA,NA
"367","adam-v5.0","CDISC","ADaM-IG","1.1;1.2;1.3","Medium","predicate","adsl-dm-consistency","predicate",NA,NA,NA,NA,NA,NA,NA,"The value of ADSL.USUBJID is equal to the value of DM.USUBJID and ADSL.ACTARM is not equal to DM.ACTARM",NA,NA,NA
"368","adam-v5.0","CDISC","ADaM-IG","1.0;1.1;1.2;1.3","Medium","predicate","triple-presence-guard","predicate",NA,NA,NA,NA,NA,NA,NA,"TRxxAGy is not present and both TRxxPGy and TRTxxA are present","expand: ""xx,y"" all: - name: TRxxPGy operator: exists - name: TRTxxA operator: exists - name: TRxxAGy operator: not_exists","2026-04-24T12:51:37Z",NA
"369","adam-v5.0","CDISC","ADaM-IG","1.0;1.1;1.2;1.3","Medium","narrative",NA,"narrative",NA,NA,NA,NA,NA,NA,NA,"*DTF is populated and neither *DT nor *DTM is populated",NA,NA,NA
"37","adam-v5.0","CDISC","ADaM-IG","1.0","Medium","narrative",NA,"narrative",NA,NA,NA,NA,NA,NA,NA,"There is more than one value of a variable which has a suffix of GRyN for a given value of a variable with the same root name and suffix of GRy",NA,NA,NA
"370","adam-v5.0","CDISC","ADaM-IG","1.0;1.1;1.2;1.3","Medium","narrative",NA,"narrative",NA,NA,NA,NA,NA,NA,NA,"*TMF is populated and neither *TM nor *DTM is populated",NA,NA,NA
"373","adam-v5.0","CDISC","ADaM-IG","1.0;1.1;1.2;1.3","Medium","predicate","presence-required","predicate",NA,NA,NA,NA,NA,"required",NA,"CNSR is not present","not_exists(CNSR)","2026-04-21T11:26:53Z",NA
"374","adam-v5.0","CDISC","ADaM-IG","1.0;1.1;1.2;1.3","Medium","predicate","presence-required","predicate",NA,NA,NA,NA,NA,"required",NA,"AVAL is not present","not_exists(AVAL)","2026-04-21T11:26:53Z",NA
"375","adam-v5.0","CDISC","ADaM-IG","1.2;1.3","Medium","predicate","value-pair-coupled","predicate",NA,NA,NA,NA,NA,NA,NA,"On a given record, a variable which has a suffix of GRyN is populated and a variable with the same root name and suffix of GRy is not populated","non_empty(stemGRyN) & empty(stemGRy)","2026-04-21T13:23:22Z",NA
"376","adam-v5.0","CDISC","ADaM-IG","1.2;1.3","Medium","predicate","value-pair-coupled","predicate",NA,NA,NA,NA,NA,NA,NA,"On a given record, a variable which has a suffix of GRy is populated and a variable with the same root name and suffix of GRyN is not populated","non_empty(stemGRy) & empty(stemGRyN)","2026-04-21T13:23:22Z",NA
"377","adam-v5.0","CDISC","ADaM-IG","1.2;1.3","Medium","predicate","value-pair-coupled","predicate",NA,NA,NA,NA,NA,NA,NA,"On a given record, TRTxxP is populated and TRTxxPN is not populated","non_empty(TRTxxP) & empty(TRTxxPN)","2026-04-21T13:12:28Z",NA
"378","adam-v5.0","CDISC","ADaM-IG","1.2;1.3","Medium","predicate","value-pair-coupled","predicate",NA,NA,NA,NA,NA,NA,NA,"On a given record, TRTxxPN is populated and TRTxxP is not populated","non_empty(TRTxxPN) & empty(TRTxxP)","2026-04-21T13:12:28Z",NA
"379","adam-v5.0","CDISC","ADaM-IG","1.2;1.3","Medium","predicate","value-conditional-populated","predicate",NA,NA,NA,NA,NA,"condition",NA,"On a given record, BTOXGRN is populated and BTOXGR is not populated","non_empty(BTOXGRN) & empty(BTOXGR)","2026-04-21T11:35:41Z",NA
"38","adam-v5.0","CDISC","ADaM-IG","1.0","Medium","narrative",NA,"narrative",NA,NA,NA,NA,NA,NA,NA,"There is more than one value of a variable which has a suffix of GRy for a given value of a variable with the same root name and suffix of GRyN",NA,NA,NA
"380","adam-v5.0","CDISC","ADaM-IG","1.2;1.3","Medium","predicate","value-conditional-populated","predicate",NA,NA,NA,NA,NA,"condition",NA,"On a given record, BTOXGR is populated and BTOXGRN is not populated","non_empty(BTOXGR) & empty(BTOXGRN)","2026-04-21T11:35:41Z",NA
