"core_id","cg_ids","tig_ids","fb_ids","rule_type","description","outcome_message","core_executable","cg_executability","overlap_type"
"CORE-000001","CG0176","TIG0405","","Record Data","Raise an error when IECAT is equal to 'INCLUSION' and IEORRES is not equal to 'N'.","IEORRES is not equal to 'N' when IECAT equals 'INCLUSION'.",TRUE,"predicate","true-duplicate"
"CORE-000002","CG0208","","","Record Data","Raise an error when SESTDTC is null.","SESTDTC is required.",TRUE,"predicate","true-duplicate"
"CORE-000003","CG0299","","","Record Data","Raise an error when TRLOC is present.","TRLOC is present when TRLOC is not included in the TR domain.",TRUE,"predicate","true-duplicate"
"CORE-000004","CG0101","TIG0366","","Record Data","When ECOCCUR indicates no dose, then ECDOSE needs to be null or > 0; it cannot be used to indicate a dose wasn't taken.","ECOCCUR indicates dose was not given, but ECDOSE is not blank or has a value less than or equal to 0",TRUE,"narrative","core-is-better"
"CORE-000005","CG0102","","","Record Data","When EXTRT is PLACEBO, EXDOSE must equal 0","EXTRT is PLACEBO, but EXDOSE is not equal to 0.",TRUE,"predicate","true-duplicate"
"CORE-000006","CG0131","TIG0381","","Record Data","Raise an error when DTHFL ^= ""Y"" and not null","DTHFL is not ""Y"" or null",TRUE,"predicate","true-duplicate"
"CORE-000007","CG0435","TIG0587","FB0606","Record Data","When Date/Time of Death (DTHDTC) in the DM dataset is populated then death flag (DTHFL) should be populated as 'Y' in the DM dataset for the correspon","DTHDTC is populated but DTHFL in DM dataset is not ""Y"".",TRUE,"predicate","true-duplicate"
"CORE-000008","CG0132","","FB0601","Record Data","When survival status is completed as 'DEAD' in the SS dataset then death flag (DTHFL) should be populated as 'Y' in the DM dataset for the correspondi","SSTRESC in SS dataset is ""DEAD"", but DTHFL in DM dataset is not ""Y"".",TRUE,"predicate","true-duplicate"
"CORE-000009","CG0152","TIG0393; TIG0061","","Record Data","Verify that ELEMENT value is blank when ETCD is equal to UNPLAN","ELEMENT variable has a non-null value when ETCD has a value of 'UNPLAN'",TRUE,"predicate","true-duplicate"
"CORE-000010","CG0153","TIG0394","","Record Data","Verify ARMCD value length is <= 20","ARMCD value length is greater than 20",TRUE,"predicate","true-duplicate"
"CORE-000011","CG0175","TIG0404","","Record Data","Raise an error when IECAT is equal to 'EXCLUSION' and IEORRES is not equal to 'Y'.","IEORRES is not equal to 'Y' when IECAT equals 'EXCLUSION'.",TRUE,"predicate","true-duplicate"
"CORE-000012","CG0040","TIG0319","","Record Data","Raise an error when AEOCCUR exists in AE dataset.","AEOCCUR is present in AE dataset.",TRUE,"predicate","true-duplicate"
"CORE-000013","CG0044","TIG0323","","Record Data","Raise an error when AESTAT is present in AE dataset.","AESTAT variable is present in AE dataset.",TRUE,"predicate","true-duplicate"
"CORE-000014","CG0087","TIG0352","","Record Data","Raise an error when --PRESP is not equals to ""Y"" and --OCCUR is present in dataset or --STAT is equal to ""NOT DONE"" and --OCCUR is not blank","--OCCUR should only be provided when --PRESP is equal to ""Y"".",TRUE,"predicate","true-duplicate"
"CORE-000015","CG0088","TIG0353","","Record Data","Raise an error when --PRESP does not exists in a dataset and --OCCUR exist.","--PRESP is missing in dataset when --OCCUR is present.",TRUE,"predicate","true-duplicate"
"CORE-000016","CG0089","TIG0354","","Record Data","Raise an error when --OCCUR is not empty and --PRESP is not equal to ""Y"".","--PRESP should be populated as ""Y"" when --OCCUR is provided.",TRUE,"predicate","true-duplicate"
"CORE-000017","CG0166","TIG0398","","Record Data","Raise an error when RDOMAIN is null when IDVARVAL is not null.","RDOMAIN has a missing value when IDVARVAL has a non-missing value.",TRUE,"predicate","true-duplicate"
"CORE-000018","CG0086","TIG0351","","Record Data","Raise an error when --PRESP is equal to ""Y"", --STAT is blank, --OCCUR is present in dataset and --OCCUR is blank","--OCCUR is blank when --PRESP is equal to ""Y"" and --STAT is not provided.",TRUE,"predicate","true-duplicate"
"CORE-000019","CG0311","TIG0486; TIG0211","","Variable Metadata Check","Raise and error if Variable label length > 40 characters","Variable label length should be less than or equal to 40 characters",TRUE,"predicate","true-duplicate"
"CORE-000020","CG0206","TIG0426","","Record Data","Raise an error when ETCD=""UNPLAN"" and TAETORD is not null.","TAETORD should be null when ETCD = 'UNPLAN'.",TRUE,"predicate","true-duplicate"
"CORE-000021","CG0397","TIG0559","","Record Data","Raise an error when the value for --STRESC is null.","--STRESC should not be blank when either --ORRES is provided or --DRVFL = 'Y' .",TRUE,"predicate","true-duplicate"
"CORE-000022","CG0041","TIG0320","","Record Data","Raise an error when AESCAN, AESCONG, AESDISAB, AESDTH, AESHOSP, AESLIFE, AESOD or AESMIE = 'Y' and AESER = 'N' or is empty.","At least one of the Seriousness criteria (AESCAN, AESCONG, AESDISAB, AESDTH, AESHOSP, AESLIFE, AESOD or AESMIE)  = 'Y', ",TRUE,"predicate","true-duplicate"
"CORE-000023","CG0084","TIG0349","","Record Data","Raise an error when --TOXGR is not present in dataset, but --TOX is present","--TOX present in dataset even though --TOXGR is not",TRUE,"predicate","true-duplicate"
"CORE-000024","CG0082","TIG0347","","Record Data","Raise an error if --BODSYS is not empty, --BDSYCD is empty","--BODSYS is not empty and --BDSYCD is empty",TRUE,"predicate","true-duplicate"
"CORE-000025","CG0177","TIG0406","","Record Data","IESTRESC is not equal to IEORRES","IESTRESC is not equal to IEORRES",TRUE,"predicate","true-duplicate"
"CORE-000026","CG0468","TIG0598","","Record Data","When --TPT is present in a dataset, --TPTNUM must also be present.","The --TPTNUM variable does not exist when --TPT does exist.",TRUE,"predicate","true-duplicate"
"CORE-000027","CG0328; CG0329","TIG0496; TIG0497; TIG0141","","Record Data","Either TEENRL or TEDUR must be present for each Element.","At least one of TEENRL and TEDUR must be populated.",TRUE,"predicate","true-duplicate"
"CORE-000028","CG0008","TIG0293","","Record Data","Raise an error when --TPTREF is empty, but --ELTM is not empty","--TPTREF is empty and --ELTM is not empty",TRUE,"predicate","true-duplicate"
"CORE-000029","CG0661","TIG0697","","Record Data","Raise an error when --TPTNUM exists in a dataset and --TPT does not exist.","--TPTNUM exists in a dataset, but --TPT does not exist. When time points are represented in SDTMIG domains, both --TPT a",TRUE,"predicate","true-duplicate"
"CORE-000030","CG0053","TIG0329","","Record Data","Raise and error when --REASND is present in dataset and --PRESP is not present in dataset","--REASND should not be present in dataset when --PRESP is not present in dataset",TRUE,"predicate","true-duplicate"
"CORE-000031","CG0659","","","Record Data","--EVAL must not be used to model QRS data.   This includes the 'QS' and 'FT' domains as well as the 'RS' domain when the record pertains to a Clinical","--EVAL is present.  --EVAL must not be used to model QRS data.",TRUE,"predicate","true-duplicate"
"CORE-000032","CG0660","","","Record Data","--EVALID must not be used to model QRS data.   This includes the 'QS' and 'FT' domains as well as the 'RS' domain when the record pertains to a Clinic","--EVALID is present.  --EVALID must not be used to model QRS data.",TRUE,"predicate","true-duplicate"
"CORE-000033","CG0065","TIG0337","","Record Data","Raise an error when DSTERM = ""COMPLETED"" and DSDECOD not equal to ""COMPLETED"".","DSDECOD is not equal to ""COMPLETED"" when DSTERM equals ""COMPLETED"".",TRUE,"predicate","true-duplicate"
"CORE-000034","CG0069","TIG0339","","Record Data","Raise an error when DSSTDTC is not equal to DM.DTHDTC and DSDECOD is equal to ""DEATH""","DSSTDTC does not equal DM.DTHDTC, when DSDECOD equals ""DEATH"".",TRUE,"predicate","true-duplicate"
"CORE-000035","CG0658","TIG0696","","Record Data","Raise an error when SVPRESP is null and VISITDY is not null.","VISITDY is populated when SVPRESP is null.  VISITDY is the Planned Study Day of a visit. It should not be populated for ",TRUE,"predicate","true-duplicate"
"CORE-000036","CG0657","TIG0695","","Record Data","Raise an error when SVPRESP is ""Y"" and VISIT is not present in TV.VISIT.","Planned visit is not found in TV.",TRUE,"predicate","true-duplicate"
"CORE-000037","CG0653","TIG0691","","Record Data","Raise an error when SVPRESP not ""Y"" or null.","SVPRESP is not null and not equal to ""Y"". Values should be ""Y"" or null.",TRUE,"predicate","true-duplicate"
"CORE-000038","CG0654","TIG0692","","Record Data","Raise an error when SVOCCUR is not null and SVPRESP is not ""Y"".","SVPRESP is not ""Y"" when SVOCCUR is populated.",TRUE,"predicate","true-duplicate"
"CORE-000039","CG0655","TIG0693","","Record Data","Raise an error when SVPRESP=""Y"" and VISITNUM is not in TV.VISITNUM","VISITNUM for planned visit is not in TV.",TRUE,"predicate","true-duplicate"
"CORE-000040","CG0656","TIG0694","","Record Data","Raise an error when SVPRESP is null and VISITNUM is present in TV.VISITNUM","VISITNUM for unplanned visit is present in TV.",TRUE,"narrative","core-is-better"
"CORE-000041","CG0649; CG0459","TIG0689","","Record Data","Raise and error when TSVAL is not populated TSVAL is populated with values or synonyms of values in the ISO 21090 null flavor codelist (or other terms","TSVAL is not populated with an ISO 21090 null flavor or null flavor description but TSVALNF is populated.",TRUE,"narrative","core-is-better"
"CORE-000042","CG0647","TIG0687","","Domain Presence Check","Raise an error when TT dataset is present.","TT dataset is present.",TRUE,"narrative","core-is-better"
"CORE-000043","CG0648","TIG0688","","Domain Presence Check","Raise an error when TP dataset is present.","TP dataset is present.",TRUE,"narrative","core-is-better"
"CORE-000044","CG0646","TIG0686","","Domain Presence Check","Raise an error when SJ dataset is present.","SJ dataset is present.",TRUE,"predicate","true-duplicate"
"CORE-000045","CG0517","TIG0612","","Record Data","Verify ARMNRS is not null when ARMCD is null","ARMNRS value is missing when ARMCD value is missing",TRUE,"narrative","core-is-better"
"CORE-000046","CG0519","TIG0614","","Record Data","Verify ARMNRS is not null when ARM is null","ARMNRS is missing when ARM value is missing",TRUE,"narrative","core-is-better"
"CORE-000047","CG0518","TIG0613","","Record Data","When study does not use multi-stage arm assignments and ARM is populated, ARM must be present in TA.ARM. This rule has been executed to identify all c","ARM value in DM dataset is not among the values of ARM variable in TA dataset. This is allowed only in a multistage stud",TRUE,"predicate","true-duplicate"
"CORE-000048","CG0621","TIG0662","","Record Data","Raise an error when --METHOD is present in an Interventions dataset.","--METHOD is present in an interventions domain.",TRUE,"predicate","true-duplicate"
"CORE-000049","CG0507; CG0622","TIG0602; TIG0663","","Record Data","Raise an error when --USCHFL is present.","--USCHFL is present.",TRUE,"predicate","true-duplicate"
"CORE-000050","CG0623","TIG0664","","Record Data","Raise an error when --RSTIND is present.","--RSTIND is present.",TRUE,"predicate","true-duplicate"
"CORE-000051","CG0624","TIG0665","","Record Data","Raise an error when --RSTMOD is present.","--RSTMOD is present.",TRUE,"predicate","true-duplicate"
"CORE-000052","CG0625","TIG0666","","Record Data","Raise an error when --IMPLBL is present.","--IMPLBL is present.",TRUE,"predicate","true-duplicate"
"CORE-000054","CG0627","TIG0668","","Record Data","Raise an error when --DTHREL is present.","--DTHREL is present.",TRUE,"predicate","true-duplicate"
"CORE-000055","CG0628","TIG0669","","Record Data","Raise an error when --EXCLFL is present.","--EXCLFL is present.",TRUE,"predicate","true-duplicate"
"CORE-000056","CG0629","TIG0670","","Record Data","Raise an error when --REASEX is present.","--REASEX is present.",TRUE,"predicate","true-duplicate"
"CORE-000057","CG0509; CG0630","TIG0604; TIG0671","","Record Data","FETUSID must not be present in SDTM domains.","FETUSID is present.",TRUE,"predicate","true-duplicate"
"CORE-000058","CG0631","TIG0672","","Record Data","Raise an error when RPHASE is present.","RPHASE is present.",TRUE,"predicate","true-duplicate"
"CORE-000059","CG0632","TIG0673","","Record Data","Raise an error when RPPLDY is present.","RPPLDY is present.",TRUE,"predicate","true-duplicate"
"CORE-000060","CG0633","TIG0674","","Record Data","Raise an error when RPPLSTDY is present.","RPPLSTDY is present.",TRUE,"predicate","true-duplicate"
"CORE-000061","CG0634","TIG0675","","Record Data","Raise an error when RPPLENDY is present.","RPPLENDY is present.",TRUE,"predicate","true-duplicate"
"CORE-000064","CG0637","TIG0678","","Record Data","Raise an error when --RPDY is present.","--RPDY is present.",TRUE,"predicate","true-duplicate"
"CORE-000065","CG0638","TIG0679","","Record Data","Raise an error when --RPSTDY is present.","--RPSTDY is present.",TRUE,"predicate","true-duplicate"
"CORE-000066","CG0639","TIG0680","","Record Data","Raise an error when --RPENDY is present.","--RPENDY is present.",TRUE,"predicate","true-duplicate"
"CORE-000067","CG0640","TIG0681","","Record Data","Raise an error when --DETECT is present.","--DETECT is present.",TRUE,"predicate","true-duplicate"
"CORE-000068","CG0641","TIG0682","","Record Data","Raise an error when AGETXT is present.","AGETXT is present.",TRUE,"predicate","true-duplicate"
"CORE-000069","CG0642","TIG0683","","Record Data","Raise an error when SPECIES is present.","SPECIES is present.",TRUE,"predicate","true-duplicate"
"CORE-000070","CG0643","TIG0684","","Record Data","Raise an error when STRAIN is present.","STRAIN is present.",TRUE,"predicate","true-duplicate"
"CORE-000071","CG0644","TIG0685","","Record Data","Raise an error when SBSTRAIN is present.","SBSTRAIN is present.",TRUE,"predicate","true-duplicate"
"CORE-000072","CG0542","","","Record Data","Raise an error when --BEATNO is present.","--BEATNO is present.",TRUE,"predicate","true-duplicate"
"CORE-000073","CG0533","","","Record Data","Raise an error when RPATHCD is present.","RPATHCD is present.",TRUE,"predicate","true-duplicate"
"CORE-000074","CG0508","TIG0603","","Record Data","Raise an error when --IMPLBL is present.","--IMPLBL is present.",TRUE,"predicate","true-duplicate"
"CORE-000075","CG0304","TIG0481","","Record Data","Raise an error when AEREASND is present.","AEREASND is present.",TRUE,"predicate","true-duplicate"
"CORE-000076","CG0302","","","Record Data","Raise an error when TRPORTOT is present.","TRPORTOT is present.",TRUE,"predicate","true-duplicate"
"CORE-000077","CG0301","","","Record Data","Raise an error when TRDIR is present.","TRDIR is present.",TRUE,"predicate","true-duplicate"
"CORE-000078","CG0300","","","Record Data","Raise an error when TRLAT is present.","TRLAT is present.",TRUE,"predicate","true-duplicate"
"CORE-000079","CG0095","","","Record Data","Raise an error when --LOC is not present and --LAT is present.","--LAT is present when --LOC is not present.",TRUE,"predicate","true-duplicate"
"CORE-000080","CG0093","TIG0358","","Record Data","Raise an error when --ELTM, --TPTNUM, and --TPT are not present in dataset, but --TPTREF is present.","--TPTREF is present when --ELTM, --TPTNUM, and --TPT are not present.",TRUE,"predicate","true-duplicate"
"CORE-000081","CG0056","TIG0330","","Record Data","Raise an error when --PRESP is not present but --STAT is present.","--STAT is present when --PRESP is not present.",TRUE,"predicate","true-duplicate"
"CORE-000082","CG0561","","","Record Data","Verify that PESTRESC is null when PEORRES is null","PESTRESC value is not missing when PEORRES value is missing",TRUE,"predicate","true-duplicate"
"CORE-000083","CG0553","TIG0641","","Record Data","Verify that --ORRES is not null when --LOBXFL = Y and --DRVFL= null or --DRVFL is not present in the dataset","--ORRES is missing even though --LOBXFL= ""Y"" and either --DRVFL is not present in dataset or is not equal to ""Y""",TRUE,"predicate","true-duplicate"
"CORE-000084","CG0057","TIG0331","","Record Data","Raise an error when --ENTPT exists in a dataset and --ENRTPT does not exist.","--ENTPT exists in a dataset, but --ENRTPT does not exist.",TRUE,"predicate","true-duplicate"
"CORE-000085","CG0059","TIG0333","","Record Data","Raise an error when --STTPT is completed and --STRTPT is empty","--STTPT is completed and --STRTPT is empty",TRUE,"predicate","true-duplicate"
"CORE-000086","CG0075","TIG0341","","Record Data","Raise an error when DVSTDTC is earlier than RFICDTC in DM.","DVSTDTC is earlier than RFICDTC in DM.",TRUE,"predicate","true-duplicate"
"CORE-000087","CG0387","TIG0549","","Record Data","Raise an error when AESER is completed and value is not 'Y' or 'N'","AESER is completed, but not equal to ""N"" or ""Y""",TRUE,"narrative","core-is-better"
"CORE-000088","CG0149","TIG0169; TIG0390","","Record Data","Verify that the length of value in SETCD variable is <= 8","SETCD value length is greater than 8",TRUE,"predicate","true-duplicate"
"CORE-000089","CG0106","","","Record Data","Raise an error when --TRTV is empty, --VAMT is not empty","Value for --VAMT is populated, when --TRTV is NULL.",TRUE,"predicate","true-duplicate"
"CORE-000090","CG0164","TIG0397","","Record Data","Verify IDVAR is null when RDOMAIN is null","RDOMAIN has a missing value but IDVAR has a non-missing value",TRUE,"predicate","true-duplicate"
"CORE-000091","CG0108","","","Record Data","Raise an error when --TRTV is null, --VAMTU is not null","Value for --VAMTU is populated, when --TRTV is NULL.",TRUE,"predicate","true-duplicate"
"CORE-000092","CG0110; CG0111","TIG0374; TIG0375","","Record Data","Raise an error when --DOSE ^= null and --DOSTXT ^= null.","Both --DOSE and --DOSTXT values are populated",TRUE,"predicate","true-duplicate"
"CORE-000093","CG0114","TIG0377","","Record Data","Raise an error when --DOSU = null and (--DOSE ^= null or --DOSTOT ^= null or --DOSTXT ^= null)","Missing value for --DOSU, when --DOSE, --DOSTXT or --DOSTOT is provided",TRUE,"predicate","true-duplicate"
"CORE-000094","CG0112","TIG0376","","Record Data","Raise an error if --DOSTXT value is numeric.","--DOSTXT value is numeric.",TRUE,"narrative","core-is-better"
"CORE-000095","CG0211","TIG0430","","Record Data","Raise an error when SEUPDES ^= null, ETCD ^= 'UNPLAN'","ETCD is not 'UNPLAN', when SEUPDES is not empty",TRUE,"predicate","true-duplicate"
"CORE-000096","CG0115","TIG0378","","Record Data","Raise an error when --LOC does not exists in a dataset, --PORTOT exists.","--PORTOT variable is present, when --LOC variable does not exist in a dataset.",TRUE,"predicate","true-duplicate"
"CORE-000097","CG0218","TIG0432","","Record Data","Raise an error when variable EPOCH values don't match between Subject Visits (SV) and Subject Elements (SE) datasets.","EPOCH values don't match between Subject Visits (SV) and Subject Elements (SE) datasets.",TRUE,"predicate","true-duplicate"
"CORE-000098","CG0116","TIG0379","","Record Data","Raise an error when --LOC does not exists in a dataset, --DIR exists.","--DIR variable is present, when --LOC variable does not exist in a dataset.",TRUE,"predicate","true-duplicate"
"CORE-000099","CG0422","TIG0577","","Record Data","Raise an error when both --ORRES and --STAT values are populated","Value for --STAT is populated, when --ORRES is populated",TRUE,"predicate","true-duplicate"
"CORE-000100","CG0423","TIG0578","","Record Data","Raise an error when --VAMT is not empty, but --TRTV is empty.","Missing --TRTV value, when --VAMT value is populated.",TRUE,"predicate","true-duplicate"
"CORE-000101","CG0427","TIG0581","","Record Data","Raise an error when --RESCAT is not empty, but --STRESC is empty","Missing --STRESC value, when --RESCAT value is populated.",TRUE,"predicate","true-duplicate"
"CORE-000102","CG0428","TIG0582","","Record Data","Raise an error when --TOX is not empty, but --TOXGR is empty.","--TOXGR should not be null when --TOX is populated.",TRUE,"predicate","true-duplicate"
"CORE-000103","CG0429","TIG0583","","Record Data","Part A - Raise an error when --SCAT is not empty, but --CAT is empty.","--CAT should not be null when --SCAT is populated",TRUE,"predicate","true-duplicate"
"CORE-000104","CG0430","TIG0584","","Record Data","Part A - Raise an error when --SCAT exists in a dataset, but --CAT does not exist.","--SCAT exists in a dataset, but --CAT does not exist.",TRUE,"predicate","true-duplicate"
"CORE-000105","CG0569","TIG0653","FB2602","Record Data","Raise an error when --LOBXFL = 'Y' and --STRESC is empty.","--LOBXFL = 'Y', but --STRESC is empty.",TRUE,"predicate","true-duplicate"
"CORE-000106","CG0045","TIG0324","","Record Data","Raise an error when --ENTPT is completed and --ENRTPT is not completed.","--ENTPT is completed, but --ENRTPT is not completed.",TRUE,"predicate","true-duplicate"
"CORE-000107","CG0554","TIG0642","","Record Data","APID is required in all Associated Persons Data. In addition to STUDYID, DOMAIN, and --SEQ being required for all domains based on one of the 3 genera","An appropriate identifier is not present; USUBJID, APID, SPDEVID, SPTOBID, POOLID, SPTOBID, STOCONID should be present.",TRUE,"narrative","core-is-better"
"CORE-000108","CG0133","TIG0382","FB0602","Record Data","When a record is present in the DD dataset then death flag (DTHFL) should be populated as 'Y' in the DM dataset for the corresponding subject.","DD record is present, but DTHFL in DM dataset is not ""Y"".",TRUE,"predicate","true-duplicate"
"CORE-000109","CG0547","","","Record Data","Raise an error when SMSTDTC is null.","SMSTDTC is null.",TRUE,"predicate","true-duplicate"
"CORE-000110","CG0549","TIG0637","","Record Data","Raise an error when (--ORREF ^= null or --DRVFL='Y') and --STREFC is null.","--STREFC is null when --ORREF is non-empty or --DRVFL is equal to 'Y'",TRUE,"predicate","true-duplicate"
"CORE-000111","CG0564","TIG0649","","Record Data","Raise an error when --AGENT is present in a dataset other than MS.","--AGENT is present in a dataset other than MS.",TRUE,"predicate","true-duplicate"
"CORE-000112","CG0565","TIG0650","","Record Data","Raise an error when --CONC is present in a dataset other than MS.","--CONC is present in a dataset other than MS.",TRUE,"predicate","true-duplicate"
"CORE-000113","CG0566","TIG0651","","Record Data","Raise an error when --CONCU is present in a dataset other than MS.","--CONCU is present in a dataset other than MS.",TRUE,"predicate","true-duplicate"
"CORE-000114","CG0567","TIG0652","","Record Data","Raise an error when --EVDTYP is present in a dataset other than MH.","--EVDTYP is present in a dataset other than MH.",TRUE,"predicate","true-duplicate"
"CORE-000115","CG0570","","","Record Data","Raise an error when ARM is 'Screen Failure', 'Not Assigned', 'Unplanned Treatment', 'Not Treated'","ARM cannot be equal to 'Screen Failure', 'Not Assigned', 'Unplanned Treatment' or 'Not Treated'.",TRUE,"narrative","core-is-better"
"CORE-000116","CG0619","TIG0660","","Record Data","Raise an error when --SPCUFL is not null or equal to ""N""","--SPCUFL is not null or equal to 'N'",TRUE,"narrative","core-is-better"
"CORE-000117","CG0081","TIG0346","","Record Data","Raise an error when --STAT not equal to 'NOT DONE' when --PRESP = 'Y' and --OCCUR is null","--STAT should equal 'NOT DONE' when --PRESP = 'Y' and --OCCUR = null",TRUE,"narrative","core-is-better"
"CORE-000118","CG0404","TIG0562","","Record Data","Raise an error when --PRESP is equal to 'Y' and --OCCUR is empty and --STAT is not present in dataset.","--STAT is not present in dataset when --PRESP is equal to ""Y"" and --OCCUR is blank",TRUE,"narrative","core-is-better"
"CORE-000119","CG0521","TIG0616","","Record Data","Raise an error when ARM is not empty, but ARMCD is empty","ARM is populated, when ARMCD is NULL",TRUE,"predicate","true-duplicate"
"CORE-000120","CG0522","TIG0617","","Record Data","Raise an error when ACTARM is not empty, but ACTARMCD is empty","ACTARM is populated, when ACTARMCD is NULL",TRUE,"predicate","true-duplicate"
"CORE-000121","CG0520","TIG0615","","Record Data","Verify the value for ARMNRS, when both ARMCD and ACTARMCD values are populated","Value for ARMNRS is populated, when both ARMCD and ACTARMCD values are populated",TRUE,"narrative","core-is-better"
"CORE-000122","CG0434","TIG0586","","Record Data","Raise an error when AGEU is completed but both AGETXT and AGE are not completed.","AGEU is completed, but both AGE and AGETXT are not completed.",TRUE,"predicate","true-duplicate"
"CORE-000123","CG0388","TIG0550","","Record Data","Raise an error when AESCAN is completed and value is not 'Y' or 'N'","AESCAN is completed, but not equal to ""N"" or ""Y""",TRUE,"narrative","core-is-better"
"CORE-000124","CG0389","TIG0551","","Record Data","Raise an error when AESCONG is completed and value is not 'Y' or 'N'","AESCONG is completed, but not equal to ""N"" or ""Y""",TRUE,"narrative","core-is-better"
"CORE-000125","CG0390","TIG0552","","Record Data","Raise an error when AESDISAB is completed and value is not 'Y' or 'N'","AESDISAB is completed, but not equal to ""N"" or ""Y""",TRUE,"narrative","core-is-better"
"CORE-000126","CG0391","TIG0553","","Record Data","Raise an error when AESDTH is completed and value is not 'Y' or 'N'","AESDTH is completed, but not equal to ""N"" or ""Y""",TRUE,"narrative","core-is-better"
"CORE-000127","CG0392","TIG0554","","Record Data","Raise an error when AESHOSP is completed and value is not 'Y' or 'N'","AESHOSP is completed, but not equal to ""N"" or ""Y""",TRUE,"narrative","core-is-better"
"CORE-000128","CG0393","TIG0555","","Record Data","Raise an error when AESLIFE is completed and value is not 'Y' or 'N'","AESLIFE is completed, but not equal to ""N"" or ""Y""",TRUE,"narrative","core-is-better"
"CORE-000129","CG0394","TIG0556","","Record Data","Raise an error when AESOD is completed and value is not 'Y' or 'N'","AESOD is completed, but not equal to ""N"" or ""Y""",TRUE,"narrative","core-is-better"
"CORE-000130","CG0395","TIG0557","","Record Data","Raise an error when AESMIE is completed and value is not 'Y' or 'N'","AESMIE is completed, but not equal to ""N"" or ""Y""",TRUE,"narrative","core-is-better"
"CORE-000131","CG0396","TIG0558","","Record Data","Raise an error when AECONTRT is completed and value is not 'Y' or 'N'","AECONTRT is completed, but not equal to ""N"" or ""Y""",TRUE,"narrative","core-is-better"
"CORE-000132","CG0154","","FB0914","Record Data","ETCD and ELEMENT should have a one-to-one relationship.","ETCD and ELEMENT do not have a one-to-one relationship.",TRUE,"predicate","true-duplicate"
"CORE-000133","CG0426","TIG0580","","Record Data","When --STRESU is populated, --STRESC must also be populated. Please note that this rule, as executed, cannot check if --STRESC is populated with the s","Missing value for --STRESC, when --STRESU is provided",TRUE,"predicate","true-duplicate"
"CORE-000134","CG0203","TIG0423","","Record Data","Raise an error when RDOMAIN ^= 'DM' and IDVAR is empty.","RDOMAIN is not 'DM' but IDVAR is empty.",TRUE,"predicate","true-duplicate"
"CORE-000135","CG0204","TIG0424","","Record Data","Raise an error when IDVAR is not empty and IDVARVAL is empty.","IDVAR is not empty but IDVARVAL is empty.",TRUE,"predicate","true-duplicate"
"CORE-000136","CG0201","TIG0422","","Record Data","Raise an error when IDVARVAL and USUBJID are empty and IDVAR = Sequence Number.","IDVARVAL and USUBJID are not completed, but IDVAR equals Sequence Number.",TRUE,"predicate","true-duplicate"
"CORE-000137","CG0100","TIG0365","","Record Data","Raise an error when ECOCCUR is not equal to 'N', ECSTAT and ECDOSTXT are both empty but ECDOSE less than or equal to 0.","ECOCCUR is not 'N', ECSTAT and ECDOSTXT are both empty but ECDOSE is less than or equal to 0.",TRUE,"narrative","core-is-better"
"CORE-000138","CG0221","TIG0435","","Record Data","If --STDTC or DM.RFSTDTC does not contain a complete values, --STDY must be null.","--STDY is not null when either --STDTC or DM.RFSTDTC do not contain complete values in their date portion",TRUE,"narrative","core-is-better"
"CORE-000139","CG0223","TIG0437","","Record Data","Trigger error if --ENDTC or DM.RFSTDTC does not contain complete values in their date portion, and --ENDY is not null.","--ENDY is not null when either --ENDTC or DM.RFSTDTC do not contain complete values in their date portion",TRUE,"narrative","core-is-better"
"CORE-000140","CG0225","TIG0438","","Record Data","Trigger error if VISITDY is populated when VISITNUM is not in TV.","VISITDY is not null when VISITNUM is not in TV.VISITNUM",TRUE,"narrative","core-is-better"
"CORE-000141","CG0240","TIG0448","FB0922","Record Data","VISITNUM and --TPTREF are not present then --TPT and --TPTNUM should have a one-to-one relationship.","--TPT and --TPTNUM do not have a one-to-one relationship.",TRUE,"narrative","core-is-better"
"CORE-000142","CG0241","TIG0449","","Record Data","Raise an error when --TPT ^= null and --TPTNUM ^= null and --ELTM ^= null and --ELTM does not have the same value across records with the same values ","--ELTM is not the same value across records with the same values of DOMAIN, VISITNUM, --TPTREF, and --TPTNUM.",TRUE,"narrative","core-is-better"
"CORE-000143","CG0246","TIG0450; TIG0165","","Record Data","The length of ETCD should be no greater than 8","ETCD value is greater than 8",TRUE,"predicate","true-duplicate"
"CORE-000144","CG0247","TIG0451","","Record Data","Trigger error when TAETORD is not unique within an ARM","TAETORD is not unique within ARM",TRUE,"narrative","core-is-better"
"CORE-000145","CG0255","","","Record Data","Trigger error when TIVERS is present and IETESTCD is not unique within TIVERS","IETESTCD is not unique within TIVERS",TRUE,"narrative","core-is-better"
"CORE-000146","CG0256","","","Record Data","Trigger error when IETESTCD is not unique within dataset","IETESTCD is not unique",TRUE,"narrative","core-is-better"
"CORE-000147","CG0257","TIG0178; TIG0461","","Record Data","Trigger error when length of TSPARMCD is greater than 8","Length of TSPARMCD is greater than 8",TRUE,"predicate","true-duplicate"
"CORE-000148","CG0258","TIG0462","","Record Data","Trigger error when length of TSPARM value is greater than 40","Length of TSPARM is greater than 40",TRUE,"predicate","true-duplicate"
"CORE-000149","CG0259","","","Record Data","Trigger error when TSVAL is null and TSVALNF is null","TSVALNF is null when TSVAL is null.",TRUE,"predicate","true-duplicate"
"CORE-000150","CG0260","","","Record Data","Trigger error when TSVAL is populated and TSVALNF is also populated.","TSVALNF is not null when TSVAL is populated",TRUE,"predicate","true-duplicate"
"CORE-000151","CG0261","","","Record Data","Trigger error when TSVAL1 is populated and TSVAL is null","TSVAL is null when TSVAL1 is populated.",TRUE,"predicate","true-duplicate"
"CORE-000152","CG0265","TIG0467","","Record Data","When TSVAL and TSVALCD are populated, there must be a one-to-one relationship between TSVALCD and TSVAL","There is not a one-to-one relationship between TSVAL and TSVALCD",TRUE,"predicate","true-duplicate"
"CORE-000153","CG0266","","","Record Data","Trigger error when TSVCDVER is populated and TSVCDREF is null","TSVCDREF is null when TSVCDVER is populated",TRUE,"predicate","true-duplicate"
"CORE-000154","CG0268","TIG0167; TIG0470","","Record Data","TSSEQ must be unique within TSPARMCD","TSSEQ is not unique within TSPARMCD",TRUE,"predicate","true-duplicate"
"CORE-000155","CG0293","TIG0475","","Record Data","Trigger error when ARMCD is populated and ARMCD is not in TA.ARMCD","ARMCD is not in TA.ARMCD",TRUE,"predicate","true-duplicate"
"CORE-000156","CG0294","TIG0476","","Record Data","Trigger error when ARM is populated and ARM is not in TA.ARM","ARM is not in TA.ARM",TRUE,"predicate","true-duplicate"
"CORE-000157","CG0297","TIG0479","","Record Data","The length of ARMCD is limited to 20 characters.","Length of ARMCD is greater than 20",TRUE,"predicate","true-duplicate"
"CORE-000158","CG0163","TIG0396","","Record Data","IDVAR must be specified.","IDVAR should not be missing when RDOMAIN is not in (empty, DM).",TRUE,"predicate","true-duplicate"
"CORE-000159","CG0341","TIG0506","","Record Data","Raise an error when --TESTCD = 'OTHER'","--TESTCD is equal to 'OTHER'",TRUE,"narrative","core-is-better"
"CORE-000160","CG0342","TIG0507","","Record Data","Raise an error when --TRT = 'OTHER'","--TRT is equal to 'OTHER'",TRUE,"narrative","core-is-better"
"CORE-000161","CG0343","TIG0508","","Record Data","Raise an error when --TERM = 'OTHER'","--TERM is equal to 'OTHER'",TRUE,"narrative","core-is-better"
"CORE-000162","CG0344","TIG0509","","Record Data","Raise an error when --TESTCD = 'MULTIPLE'","--TESTCD is equal to 'MULTIPLE'",TRUE,"narrative","core-is-better"
"CORE-000163","CG0345","TIG0510","","Record Data","Raise an error when --TRT = 'MULTIPLE'","--TRT is equal to 'MULTIPLE'",TRUE,"narrative","core-is-better"
"CORE-000164","CG0346","TIG0511","","Record Data","Raise an error when --TERM = 'MULTIPLE'","--TERM is equal to 'MULTIPLE'",TRUE,"narrative","core-is-better"
"CORE-000165","CG0090","TIG0355","FB3701","Record Data","Time point reference (--TPTREF) should be present in the dataset, when reference time point (--RFTDTC) is also present in the dataset.","--TPTREF is missing when --RFTDTC is present.",TRUE,"predicate","true-duplicate"
"CORE-000166","CG0091","TIG0356","","Record Data","Raise an error when --TPT is not present but --TPTNUM is present in dataset.","--TPT is not present when --TPTNUM is present in a dataset",TRUE,"predicate","true-duplicate"
"CORE-000167","CG0092","TIG0357","","Record Data","Raise an error when--ELTM is present but --TPTREF is not present in dataset.","--TPTREF must be present when --ELTM is present in a dataset",TRUE,"predicate","true-duplicate"
"CORE-000168","CG0034","TIG0315","","Record Data","If VISITNUM is not null then VISITNUM should be among SV.VISITNUM","VISITNUM is not among VISITNUM in SV domain.",TRUE,"predicate","true-duplicate"
"CORE-000169","CG0185","TIG0414","","Record Data","Raise a warning when LBTOXGR is not numeric","Verify that LBTOXGR value is not from a numeric scale",TRUE,"narrative","core-is-better"
"CORE-000170","CG0541","TIG0634","","Record Data","Raise an error when --LOBXFL is not 'Y' or null","Value of --LOBXFL must be 'Y' or null",TRUE,"narrative","core-is-better"
"CORE-000171","CG0058","TIG0332","","Record Data","Raises an error when --ENRTPT is present in dataset but --ENTPT is not present in dataset.","--ENTPT should be present when --ENRTPT is present in a dataset",TRUE,"predicate","true-duplicate"
"CORE-000172","CG0409","TIG0168; TIG0565","","Record Data","Raise an error when STUDYID is not equal to DM.STUDYID. The STUDYID in all domains must be the same in all records across the study.","STUDYID is not equal to DM.STUDYID",TRUE,"predicate","true-duplicate"
"CORE-000173","CG0414","TIG0569","","Record Data","Raise an error when ETCD is not equal to 'UNPLAN' and not equal to TE.ETCD","ETCD is not equal to 'UNPLAN' and not equal to TE.ETCD",TRUE,"predicate","true-duplicate"
"CORE-000174","CG0356","","","Record Data","Verify variable SPECIES does not exist in DM dataset","SPECIES is present in DM dataset.",TRUE,"predicate","true-duplicate"
"CORE-000175","CG0357","","","Record Data","Verify variable STRAIN does not exist in DM dataset","STRAIN is present in DM dataset.",TRUE,"predicate","true-duplicate"
"CORE-000176","CG0358","","","Record Data","Verify variable SBSTRAIN does not exist in DM dataset","SBSTRAIN is present in DM dataset.",TRUE,"predicate","true-duplicate"
"CORE-000177","CG0227","TIG0440","","Record Data","Raise an error when DM.RFENDTC is empty and --ENRF is not empty.","DM.RFENDTC is empty, but --ENRF is completed.",TRUE,"predicate","true-duplicate"
"CORE-000178","CG0172","","","Record Data","Raise an error when SSSTRESC = 'DEAD' and SSDTC < max DS.DSSTDTC.","SSSTRESC = 'DEAD', but SSDTC < max DS.DSSTDTC.",TRUE,"narrative","core-is-better"
"CORE-000179","CG0307","TIG0482","FB0916","Record Data","TSPARMCD and TSPARM should have a one-to-one relationship.","TSPARM and TSPARMCD do not have a one-to-one relationship.",TRUE,"predicate","true-duplicate"
"CORE-000180","CG0308","TIG0483","","Record Data","Raise an error when DOMAIN value length is not equal 2.","Domain value length is not equal 2.",TRUE,"predicate","true-duplicate"
"CORE-000181","CG0309","","","Record Data","Raise an error when AP-- domain value length is not equal to 4.","AP-- Domain value length is not equal to 4.",TRUE,"predicate","true-duplicate"
"CORE-000182","CG0310","TIG0485; TIG0128","","Variable Metadata Check","Raise an error when variable name length is greater than 8.","Variable name length is greater than 8.",TRUE,"predicate","true-duplicate"
"CORE-000183","CG0318","TIG0489","","Domain Presence Check","Raise an error when a PP dataset is present in study, but a PC dataset is not present in study.","PP dataset is present in  study, but PC dataset is not present in study.",TRUE,"predicate","true-duplicate"
"CORE-000184","CG0083","TIG0348","FB0910","Record Data","--BODSYS and --BDSYCD  have a one-to-one relationship.","--BODSYS and --BDSYCD do not have a one-to-one relationship.",TRUE,"predicate","true-duplicate"
"CORE-000185","CG0123","TIG0380","","Record Data","Trigger error if length of ACTARMCD is greater than 20 characters","Length of ACTARMCD is greater than 20 characters",TRUE,"predicate","true-duplicate"
"CORE-000186","CG0150","TIG0391","","Record Data","Trigger error if SUBJID is not unique","SUBJID is not unique within study",TRUE,"predicate","true-duplicate"
"CORE-000187","CG0168","TIG0400","","Record Data","Trigger error when IDVAR is not null and CODTC is not null","CODTC is populated when IDVAR is also populated",TRUE,"predicate","true-duplicate"
"CORE-000188","CG0191","","","Domain Presence Check","Trigger error if MS dataset is present and MB dataset is not present.","The MB dataset is not present when the MS dataset is present.",TRUE,"predicate","true-duplicate"
"CORE-000189","CG0665","TIG0699","","Record Data","Raise an error when AGE is not blank and AGEU is blank.","AGEU is missing when AGE is provided.",TRUE,"predicate","true-duplicate"
"CORE-000190","CG0666","TIG0700","","Record Data","Raise an error when AGEU is not blank and AGE is blank.","AGE is missing when AGEU is provided.",TRUE,"predicate","true-duplicate"
"CORE-000191","CG0529","TIG0622","","Record Data","Raise an error when ARM is not empty and RFENDTC is empty.","RFENDTC is missing when ARM is provided.",TRUE,"predicate","true-duplicate"
"CORE-000192","CG0530","TIG0623","","Record Data","Raise an error when ARMNRS is not blank and RFENDTC is provided.","RFENDTC is not blank when ARMNRS is provided.",TRUE,"predicate","true-duplicate"
"CORE-000193","CG0503","","","Record Data","Raise an error when variable MIDSDTC is present and MIDS variable is missing.","MIDS variable is missing when MIDSDTC variable is present in a dataset.",TRUE,"predicate","true-duplicate"
"CORE-000195","CG0338","TIG0503","","Record Data","Raise an error when --SCAT = --DECOD.","--SCAT is equal to --DECOD.",TRUE,"predicate","true-duplicate"
"CORE-000196","CG0337","TIG0502","","Record Data","Raise an error when --CAT = --DECOD.","--CAT is equal to --DECOD.",TRUE,"predicate","true-duplicate"
"CORE-000197","CG0339","TIG0504","","Record Data","Raise an error when --CAT = --BODSYS.","--CAT is equal to --BODSYS.",TRUE,"predicate","true-duplicate"
"CORE-000198","CG0340","TIG0505","","Record Data","Raise an error when --SCAT = --BODSYS.","--SCAT is equal to --BODSYS.",TRUE,"predicate","true-duplicate"
"CORE-000199","CG0406","TIG0563","","Record Data","Raise an error when length of --TEST > 40.","Value length of --TEST > 40.",TRUE,"narrative","core-is-better"
"CORE-000200","CG0348","TIG0513","","Record Data","Verify that --ORRES is not missing when either --STAT is null or --DRVFL not equal to 'Y'","--ORRES cannot be null when --STAT is null or --DRVFL not equal to 'Y'",TRUE,"predicate","true-duplicate"
"CORE-000201","CG0029","TIG0311; TIG0046","","Record Data","Trigger error when domain is not an AP-- domain and USUBJID is not present in DM.USUBJID","USUBJID is not found in DM.USUBJID",TRUE,"predicate","true-duplicate"
"CORE-000202","CG0419","TIG0574","","Record Data","When IDVAR is populated with a --SEQ value, RELTYPE must be null.","RELTYPE is populated when IDVAR is populated with a 'SEQ' value.",TRUE,"predicate","true-duplicate"
"CORE-000203","CG0411","TIG0567","","Record Data","Trigger error when the combination of IDVAR, IDVARVAL, and QNAM is not unique per parent subject record","The combination of IDVAR, IDVARVAL, and QNAM is not unique per parent subject record",TRUE,"narrative","core-is-better"
"CORE-000204","CG0410","TIG0566","","Record Data","When VISITNUM is present in TV.VISITNUM, SV.VISITNUM must be unique within subject","Scheduled or Contingent visit is not unique within subject",TRUE,"predicate","true-duplicate"
"CORE-000206","CG0371","TIG0535; TIG0058","","Record Data","When IDVAR is populated, IDVARVAL must equal a value of the variable referenced by IDVAR within the domain referenced by RDOMAIN","IDVARVAL does not equal a value of the variable referenced by IDVAR in domain = RDOMAIN.",TRUE,"narrative","core-is-better"
"CORE-000207","CG0467","TIG0597; TIG0276","","Record Data","Trigger error when --STDTC is present in a Findings general observation class","--STDTC is present in a Findings general observation class",TRUE,"narrative","core-is-better"
"CORE-000208","CG0512","TIG0607","","Record Data","Trigger error when study does not use multi-stage arm assignments and ACTARMCD ^= null, and ACTARMCD is not in TA.ARMCD","ACTARMCD is not in TA.ARMCD",TRUE,"predicate","true-duplicate"
"CORE-000209","CG0514","TIG0609","","Record Data","When study does not use multi-stage arm assignments and ACTARM is populated, ACTARM must be present in TA.ARM. This rule has been executed to identify","ACTARM value in DM dataset is not among the values of ARM variable in the TA dataset. This is allowed only in a multista",TRUE,"predicate","true-duplicate"
"CORE-000210","CG0516","TIG0611","","Record Data","When study does not use multi-stage arm assignments and ARMCD is populated, ARMCD must be present in TA.ARMCD. This rule has been executed to identify","ARMCD is not present in TA.ARMCD",TRUE,"predicate","true-duplicate"
"CORE-000211","CG0528","","","Record Data","SUPPDM must not include population flags.","Population flag is present in SUPPDM",TRUE,"narrative","core-is-better"
"CORE-000212","CG0535","TIG0628","","Record Data","When subject has more than one record per Epoch with DSCAT = DISPOSITION EVENT, DSSCAT must be present.","DSSCAT is not present when subject has more than one record per Epoch with DSCAT = 'DISPOSITION EVENT'.",TRUE,"narrative","core-is-better"
"CORE-000213","CG0536","TIG0629","","Record Data","Trigger error when there is more than one record per subject per DSSCAT per EPOCH","More than one record per subject per DSSCAT per EPOCH",TRUE,"predicate","true-duplicate"
"CORE-000214","CG0538","TIG0631","","Record Data","Trigger error when subject has more than one record per Epoch with DSCAT = 'DISPOSITION EVENT' and more than one record where DSSCAT = 'STUDY PARTICIP","More than 1 record exists per subject per EPOCH with DSCAT = 'DISPOSITION EVENT' and DSSCAT = 'STUDY PARTICIPATION'.",TRUE,"predicate","true-duplicate"
"CORE-000215","CG0539","","","Record Data","Trigger error when subject has more than one record per Epoch with DSCAT = 'DISPOSITION EVENT' and more than one record where DSSCAT = 'STUDY TREATMEN","More than 1 record exists per subject per EPOCH with DSCAT = 'DISPOSITION EVENT' and DSSCAT = 'STUDY TREATMENT'.",TRUE,"predicate","true-duplicate"
"CORE-000216","CG0545","","","Record Data","MIDSTYPE must be unique within subject when MIDSTYPE = TM.MIDSTYPE and TM.TMRPT = 'N'","MIDSTYPE is not unique within subject when MIDSTYPE = TM.MIDSTYPE and TM.TMRPT = 'N'",TRUE,"narrative","core-is-better"
"CORE-000217","CG0462","TIG0592","","Record Data","Raise an error when ECDOSE is empty, ECOCCUR is not equal to 'N', ECSTAT is empty and ECDOSTXT is empty","ECDOSE is empty, ECOCCUR is not equal to 'N' and ECSTAT is empty, but ECDOSTXT is also empty.",TRUE,"predicate","true-duplicate"
"CORE-000218","CG0465","TIG0595; TIG0055","","Record Data","Raise an error when IDVAR is empty and IDVARVAL is not empty","IDVAR is empty but IDVARVAL is not empty",TRUE,"predicate","true-duplicate"
"CORE-000219","CG0350","TIG0515","","Record Data","Raise an error when --SCAT = domain dataset label.","--SCAT is equal to domain dataset label.",TRUE,"narrative","core-is-better"
"CORE-000220","CG0372","TIG0536","","Record Data","Part A - Raise an error when --TESTCD > 8 chars or contains more than only letters, numbers and underscores, or starts with a number.","--TESTCD > 8 chars or contains more than only letters, numbers, underscores, or starts with a number.",TRUE,"narrative","core-is-better"
"CORE-000221","CG0417","TIG0572","","Record Data","Raise an error when QNAM > 8 chars or contains more than only letters in uppercase, numbers and underscores, or starts with a number.","QNAM > 8 chars or contains letters that are in not in uppercase, more than only letters, numbers, underscores, or starts",TRUE,"narrative","core-is-better"
"CORE-000222","CG0416","TIG0571","","Record Data","Raise an error when QLABEL > 40 chars.","QLABEL > 40 chars.",TRUE,"predicate","true-duplicate"
"CORE-000223","CG0513","TIG0608","","Record Data","Raise an error when ACTARMCD is empty and ARMNRS is not completed.","ACTARMCD is empty, but ARMNRS is not completed.",TRUE,"narrative","core-is-better"
"CORE-000224","CG0515","TIG0610","","Record Data","Raise an error when ACTARM is empty and ARMNRS is not completed.","ACTARM is empty, but ARMNRS is not completed.",TRUE,"narrative","core-is-better"
"CORE-000225","CG0094","TIG0359","","Record Data","Raise an error when --REASND is provided and --STAT is not equal to ""NOT DONE"".","--STAT should be ""NOT DONE"" when --REASND is provided.",TRUE,"predicate","true-duplicate"
"CORE-000226","CG0352","","","Record Data","Verifying presence of SEND variable --DTHREL","--DTHREL must never be used in SDTM-based data for human clinical trials",TRUE,"predicate","true-duplicate"
"CORE-000227","CG0178","TIG0407","","Record Data","Check if IETEST is not in TI.IETEST","IETEST is not in TI.IETEST",TRUE,"predicate","true-duplicate"
"CORE-000228","CG0179","TIG0408","","Record Data","Check if IETESTCD is present in TI.IETESTCD","IETESTCD from IE domain does not exist in IETESTCD of TI domain.",TRUE,"predicate","true-duplicate"
"CORE-000229","CG0361","","","Record Data","Verify that When USUBJID is populated, POOLID is not populated","POOLID must be null when USUBJID is populated",TRUE,"predicate","true-duplicate"
"CORE-000230","CG0362","","","Record Data","Verify that when POOLID is populated, USUBJID is not populated","USUBJID must be null when POOLID is populated",TRUE,"predicate","true-duplicate"
"CORE-000231","CG0363","","","Record Data","Verify that when RSUBJID populated, RSUBJID does not equal USUBJID","RSUBJID when populated cannot equal USUBJID",TRUE,"predicate","true-duplicate"
"CORE-000232","CG0364","","","Record Data","Verify when RSUBJID is populated it does not equal POOLID","When RSUBJID is populated, RUSBJID cannot equal POOLID",TRUE,"predicate","true-duplicate"
"CORE-000233","CG0365","","","Record Data","Related Device Identifier (RDEVID) and Related Subject or Pool Identifier (RSUBJID) should not both be populated for the same record.","RDEVID must be empty when RSUBJID is populated and RSUBJID must be empty when RDEVID is populated",TRUE,"narrative","core-is-better"
"CORE-000234","CG0366","","","Record Data","Verify that RSUBJID is empty when RDEVID is populated","RSUBJID must be missing when RDEVID is populated",TRUE,"narrative","core-is-better"
"CORE-000235","CG0367","","","Record Data","Verify that RSUBJID=DM.USUBJID when RSUBJID is populated and RSUBJID is not equal to POOLID","RSUBJID must equal DM.USUBJID when RSUBJID is populated and RSUBJID does not equal POOLID",TRUE,"predicate","true-duplicate"
"CORE-000236","CG0079","TIG0345","","Record Data","Raise an issue if MHSTDTC has a non-empty date that later than DM.RFSTDTC","MHSTDTC ^= null and MHSTDTC is on or after the DM.RFSTDTC. The medical history dataset should include the subject's prio",TRUE,"predicate","true-duplicate"
"CORE-000237","CG0027","TIG0309","","Record Data","Trigger error when --SCAT is not null and --SCAT is equal to --CAT","--SCAT is equal to --CAT",TRUE,"predicate","true-duplicate"
"CORE-000238","CG0147","TIG0388","","Record Data","Raise an error when EX records are present for subject but RFXENDTC does not equal the latest value of EX.EXSTDTC or EX.EXENDTC","RFXENDTC does not equal the latest value of EX.EXSTDTC or EX.EXENDTC",TRUE,"narrative","core-is-better"
"CORE-000239","CG0148","TIG0389","","Record Data","Raise an error when EX records are present for subject but RFXSTDTC does not equal the earliest value of EX.EXSTDTC","RFXSTDTC does not equal the earliest value of EX.EXSTDTC",TRUE,"narrative","core-is-better"
"CORE-000240","CG0420","TIG0575","","Record Data","When --OCCUR = 'N', --STRF must not be populated","--STRF is populated when --OCCUR = ""N""",TRUE,"predicate","true-duplicate"
"CORE-000241","CG0421","TIG0576","","Record Data","When --OCCUR = 'N', --ENRF must not be populated","--ENRF is populated when --OCCUR = ""N""",TRUE,"predicate","true-duplicate"
"CORE-000242","CG0353","TIG0518","","Record Data","Raise an error when --EXCLFL is present in dataset.","--EXCLFL must never be used in SDTM-based human trials",TRUE,"predicate","true-duplicate"
"CORE-000243","CG0354","TIG0519","","Record Data","Raise an error when --REASEX is present in dataset.","--REASEX must never be used in SDTM-based human clinical trials",TRUE,"predicate","true-duplicate"
"CORE-000244","CG0355","TIG0520","","Record Data","Raise an error when --DETECT is present in dataset.","--DETECT must never be used in SDTM-based human trials",TRUE,"predicate","true-duplicate"
"CORE-000245","CG0510; CG0635","TIG0605; TIG0676","","Record Data","Raise an error when --NOMDY is present.","--NOMDY is present.",TRUE,"predicate","true-duplicate"
"CORE-000246","CG0511; CG0636","TIG0606; TIG0677","","Record Data","Raise an error when --NOMLBL is present.","--NOMLBL is present.",TRUE,"predicate","true-duplicate"
"CORE-000247","CG0552; CG0626","TIG0640; TIG0667","","Record Data","Raise an error when --RESLOC is present.","--RESLOC is present.",TRUE,"predicate","true-duplicate"
"CORE-000248","CG0026","TIG0265; TIG0308","FB3702","Record Data","Time point reference (--TPTREF) should be populated when reference time point (--RFTDTC) is populated.","--TPTREF value is missing when --RFTDTC is populated.",TRUE,"predicate","true-duplicate"
"CORE-000249","CG0032","TIG0313","","Record Data","Verify that visitdy is planned and exists in TV","Visit Day cannot be found in Trial Visit (TV) domain",TRUE,"predicate","true-duplicate"
"CORE-000250","CG0078","TIG0344","","Record Data","Raise an issue if MHENDTC has a non-empty date that is on or after DM.RFSTDTC","MHENDTC ^= null and MHENDTC is on or after the DM.RFSTDTC. The medical history dataset should include the subject's prio",TRUE,"narrative","core-is-better"
"CORE-000251","CG0067","","FB0614","Record Data","When survival status is completed as 'DEAD' in the SS dataset then a record should be present in the DS dataset where DSDECOD = 'DEATH' for the corres","SSTRESC in SS dataset is ""DEAD"", but a record is missing in DS dataset where DSDECOD = ""DEATH"".",TRUE,"predicate","true-duplicate"
"CORE-000252","CG0136","TIG0385","FB0605","Record Data","When a record is present in the DS dataset where DSDECOD = 'DEATH' then death flag (DTHFL) should be populated as 'Y' in the DM dataset for the corres","DSDECOD is 'DEATH' in DS dataset, but DTHFL in DM dataset is not ""Y"".",TRUE,"predicate","true-duplicate"
"CORE-000253","CG0135","TIG0384","FB0604","Record Data","When a record is present in the AE dataset where AESDTH = 'Y' then death flag (DTHFL) should be populated as 'Y' in the DM dataset for the correspondi","AESDTH is 'Y' in AE dataset, but DTHFL in DM dataset is not ""Y"".",TRUE,"predicate","true-duplicate"
"CORE-000254","CG0134","TIG0383","FB0603","Record Data","When a record is present in the AE dataset where AEOUT = 'FATAL' then death flag (DTHFL) should be populated as 'Y' in the DM dataset for the  corresp","AEOUT is 'FATAL' in AE dataset, but DTHFL in DM dataset is not ""Y"".",TRUE,"predicate","true-duplicate"
"CORE-000256","CG0210","TIG0429; TIG0062","","Record Data","Raise an error when ETCD = 'UNPLAN', SEUPDES = null","Missing value for SEUPDES, when ETCD='UNPLAN'",TRUE,"predicate","true-duplicate"
"CORE-000258","CG0062","TIG0336","","Record Data","Raise an error when --STRTPT is present in dataset and --STTPT is not present in dataset.","--STRTPT is present in dataset, but --STTPT is not present in dataset.",TRUE,"predicate","true-duplicate"
"CORE-000259","CG0171","","FB0613","Record Data","Date/time of collection of subject status in SS dataset where survival status (SSSTRESC) = 'DEAD' should be equal to or after the Date/Time of Death (","SSDTC in SS dataset where SSTRESC = 'DEAD' is not equal to or after the DTHDTC in the DM dataset.",TRUE,"predicate","true-duplicate"
"CORE-000260","CG0085","TIG0350","","Record Data","Raise an error when --PRESP does not equal 'Y' or is not empty.","--PRESP does not equal 'Y' or is not empty.",TRUE,"predicate","true-duplicate"
"CORE-000261","CG0060","TIG0334","","Record Data","Raise an error when --STTPT is present in dataset and --STRTPT is not present in dataset.","--STTPT is present in dataset, but --STRTPT is not present in dataset.",TRUE,"predicate","true-duplicate"
"CORE-000262","CG0226","TIG0439","","Record Data","Raise an error when RFSTDTC in DM is empty and --STRF is not empty.","RFSTDTC in DM dataset is empty but --STRF is completed.",TRUE,"predicate","true-duplicate"
"CORE-000264","CG0039","","","Record Data","Raise an error if primary SOC is used for analysis and -BODSYS is not equal to -SOC","Primary analysis used but --BODSYS and --SOC are not equal",TRUE,"predicate","true-duplicate"
"CORE-000266","CG0042","TIG0321","","Record Data","Select record where AESCAN and AESCONG and AESDISAB and AESDTH and AESHOSP and AESLIFE and AESOD and AESMIE ^= ""Y"" However, AESER ^= ""N""","If AESER = ""N"" then none of the seriousness criteria (AESCAN, AESCONG, AESDISAB, AESDTH, AESHOSP, AESLIFE, AESOD, AESMIE",TRUE,"predicate","true-duplicate"
"CORE-000267","CG0050","TIG0328","","Record Data","Raise an error when --DECOD is not populated but --PTCD is populated","--DECOD should be populated when --PTCD is populated",TRUE,"predicate","true-duplicate"
"CORE-000268","CG0049","TIG0327","FB0909","Record Data","--DECOD and --PTCD should have a one-to-one relationship.","--DECOD and --PTCD do not have a one-to-one relationship.",TRUE,"predicate","true-duplicate"
"CORE-000269","CG0031","TIG0312","","Record Data","Verify when VISIT is not null in any given domain and VISIT is planned (SVPRESP = 'Y'), then VISIT should be among TV.VISIT.","For a planned visit (SVPRESP = 'Y'), non-missing VISIT value must be among those present in TV.VISIT.",TRUE,"predicate","true-duplicate"
"CORE-000270","CG0033","TIG0314","","Record Data","Verify when VISITNUM is not null in any given domain and VISITNUM is planned (SVPRESP = 'Y'), then VISIT should be among TV.VISITNUM.","For a planned visit (SVPRESP = 'Y'), non-missing VISITNUM value must be among those present in TV.VISITNUM. in TV.VISITN",TRUE,"predicate","true-duplicate"
"CORE-000271","CG0009","TIG0294","","Record Data","Raise an error when EPOCH is not in TA.EPOCH","EPOCH is not in TA.EPOCH",TRUE,"predicate","true-duplicate"
"CORE-000272","CG0336","TIG0501","","Record Data","Raise an error when --CAT = DOMAIN.","--CAT is equal to DOMAIN.",TRUE,"narrative","core-is-better"
"CORE-000289","CG0181","TIG0410","","Record Data","Raise an error when LBORRES is not a continuous measurement and LBORNRHI is not empty. The interpretation of the guidance is that LBORRES is populated","LBORRES is not a continuous measurement but LBORNRHI is not empty.",TRUE,"narrative","core-is-better"
"CORE-000290","CG0180","TIG0409","","Record Data","Raise an error when LBORRES ^= continuous measurement and LBORNRLO is not empty. The interpretation of the guidance is that LBORRES is populated (not ","LBORRES is not a continuous measurement but LBORNRLO is not empty.",TRUE,"narrative","core-is-better"
"CORE-000291","CG0105","TIG0370","","Domain Presence Check","When EC exists, EXVAMT should not be used.","EXVAMT is present when EC exists.",TRUE,"predicate","true-duplicate"
"CORE-000292","CG0107","","","Domain Presence Check","When EC exists, EXVAMTU should not be used.","EXVAMTU is present when EC domain exists.",TRUE,"predicate","true-duplicate"
"CORE-000293","CG0205","TIG0425","","Dataset Metadata Check","Trigger error if length of dataset name is greater than 8","Length of dataset name of SUPP-- dataset is greater than 8.",TRUE,"predicate","true-duplicate"
"CORE-000294","CG0270","TIG0471","","Record Data","Trigger error when TSPARMCD = 'AGEMAX' and TSVAL ^= null and TSVAL does not conform to ISO 8601","TSVAL is not in ISO 8601 format",TRUE,"predicate","true-duplicate"
"CORE-000295","CG0550","TIG0638","","Record Data","When --STREFC is populated, --STREFN should also be populated.","--STREFN is null when --STREFC is populated.",TRUE,"predicate","true-duplicate"
"CORE-000296","CG0540","TIG0633","","Record Data","When ACTARMCD is populated, disposition data for subject must be present","There are no DS records for subject who was assigned treatment",TRUE,"narrative","core-is-better"
"CORE-000297","CG0501","","","Domain Presence Check","Raise an error when variable MIDS is present in any of the dataset and TM dataset is missing.","TM dataset is missing when MIDS variable is present in one of the dataset.",TRUE,"predicate","true-duplicate"
"CORE-000298","CG0182","TIG0411","","Record Data","Raise an error when LBORRES is not a continuous measurement and LBSTNRLO is not empty. The interpretation of the guidance is that LBORRES is populated","LBORRES is not a continuous measurment but LBSTNRLO is not empty.",TRUE,"narrative","core-is-better"
"CORE-000299","CG0183","TIG0412","","Record Data","Raise an error when LBORRES is not a continuous measurement and LBSTNRHI is not empty. The interpretation of the guidance is that LBORRES is populated","LBORRES is not a continuous measurement but LBSTNRHI is not empty.",TRUE,"narrative","core-is-better"
"CORE-000302","","","FB0920","Record Data","QNAM and QLABEL should have a one-to-one relationship.","QNAM and QLABEL do not have a one-to-one relationship.",TRUE,NA,"core-only"
"CORE-000303","","","FB0901","Record Data","--TESTCD and --TEST should have a one-to-one relationship.","--TESTCD and --TEST do not have a one-to-one relationship.",TRUE,NA,"core-only"
"CORE-000305","","","FB4005","Record Data","Collected Duration (--DUR) value should not be negative.","Negative value for --DUR.",TRUE,NA,"core-only"
"CORE-000308","","","FB4002","Record Data","Dose (--DOSE) value should not be negative","Negative value for --DOSE.",TRUE,NA,"core-only"
"CORE-000310","","","FB4001","Record Data","Age (AGE) value should not be negative","Negative value for AGE.",TRUE,NA,"core-only"
"CORE-000318","","","FB0902","Record Data","ARMCD and ARM should have a one-to-one relationship.","ARMCD and ARM do not have a one-to-one relationship.",TRUE,NA,"core-only"
"CORE-000321","","","FB3201","Record Data","When Date/Time of Collection (--DTC) is present in the dataset, then the Study Day of Visit/Collection/Exam (--DY) should also present in the dataset.","Study Day of Visit/Collection/Exam (--DY) variable is missing when Date/Time of Collection (--DTC) is present.",TRUE,NA,"core-only"
"CORE-000322","CG0066","","","Record Data","When DSCAT equals PROTOCOL MILESTONE, then DSTERM should be equal to DSDECOD","DSCAT equals PROTOCOL MILESTONE but DSTERM is not equal to DSDECOD",TRUE,"predicate","true-duplicate"
"CORE-000324","CG0234","TIG0443","","Record Data","Trigger error when --ENRTPT is not in ('BEFORE', 'COINCIDENT', 'ONGOING', 'UNKNOWN')","--ENRTPT is not in ('BEFORE', 'COINCIDENT', 'ONGOING', 'UNKNOWN')",TRUE,"predicate","true-duplicate"
"CORE-000326","CG0568","","","Record Data","Trigger error when EXMETHOD exists in the EX dataset for human clinical trials","EXMETHOD is not to be used with human clinical trials",TRUE,"predicate","true-duplicate"
"CORE-000328","","","FB3202","Record Data","Study Day of Start (--STDY) variable should be included into dataset, when Start Study Date/Time (--STDTC) variable is present.","The Study Day of Start of Observation (--STDY) is not present in the dataset when Start Date/Time of Observation (--STDT",TRUE,NA,"core-only"
"CORE-000329","CG0063","","","Record Data","Raise an error when multiple records within same USUBJID exist with DSCAT = DISPOSITION EVENT but EPOCH is empty","Multiple records within same USUBJID exist with DSCAT = DISPOSITION EVENT but EPOCH is empty",TRUE,"predicate","true-duplicate"
"CORE-000330","CG0122","","","Record Data","ACTARM value must match ARM value in Demographics when ARM equals ""Screen Failure"" or ""Not Assigned""","ARM should be equal to ACTARM when ARM is Screen Failure or Not Assigned.",TRUE,"predicate","true-duplicate"
"CORE-000331","CG0124; CG0125","","","Record Data","ACTARMCD values in Demographics are restricted to ARMCD values in Trial Arms when ACTARMCD is not equal to ""SCRNFAIL"", ""NOTASSGN"", ""NOTTRT"", or ""UNPLA","DM.ACTARMCD must equal SCRNFAIL, NOTASSGN, NOTTRT, or UNPLAN if the value is not present in TA.ARMCD",TRUE,"predicate","true-duplicate"
"CORE-000332","CG0193","","","Record Data","Raise an error when MBTESTCD=ORGANISM, MSSTRESC!='NO GROWTH', MBMETHOD!='GRAM STAIN' and MBRESCAT is empty","MBRESCAT is expected when MBTESTCD='ORGANISM', MSSTRESC!='NO GROWTH', MBMETHOD!='GRAM STAIN'",TRUE,"predicate","true-duplicate"
"CORE-000333","CG0215","","","Record Data","Raise an error when SVUPDES is null and SV.VISIT is not in TV.VISIT","SVUPDES is not populated or does not exist, but the VISIT does not equal a VISIT present in TV",TRUE,"predicate","true-duplicate"
"CORE-000334","CG0016","TIG0301; TIG0065","","Variable Metadata Check","Raise an error when an expected variable is not present in the dataset.","At least one expected variable is missing from dataset",TRUE,"narrative","core-is-better"
"CORE-000335","CG0280","","","Record Data","Raise an error when TSPARMCD = ""RANDQT"" and the value provided in TSVAL is not a number between 0 and 1.","TSPARMCD = ""RANDQT"" but TSVAL is not a number between 0 and 1.",TRUE,"narrative","core-is-better"
"CORE-000337","CG0140","TIG0386","","Record Data","Raise an error when multiple races are collected in SUPPDM but RACE in DM does not equal ""MULTIPLE"".","Multiple races are collected in SUPPDM but RACE in DM does not equal ""MULTIPLE"".",TRUE,"predicate","true-duplicate"
"CORE-000338","CG0457","","","Record Data","Raise an error when TSPARMCD = ""ACTSUB"" and the value provided in TSVAL is not an integer greater than 0.","TSPARMCD = ACTSUB but the value provided in TSVAL is not a positive integer.",TRUE,"predicate","true-duplicate"
"CORE-000339","CG0456","","","Record Data","Raise an error when TSPARMCD = FCNTRY and TSVCDREF is not equal to 'ISO 3166-1 alpha-3'","TSPARMCD = FCNTRY but TSVCDREF is not equal to 'ISO 3166-1 alpha-3'",TRUE,"predicate","true-duplicate"
"CORE-000340","CG0440","","","Record Data","Raise an error when TSPARMCD = ""PLANSUB"" and the value provided in TSVAL is not an integer greater than 0.","TSPARMCD = PLANSUB but the value provided in TSVAL is not a positive integer.",TRUE,"predicate","true-duplicate"
"CORE-000351","CG0151","TIG0392; TIG0255","","Record Data","USUBJID must be unique across all studies","USUBJID is not unique within study",TRUE,"predicate","true-duplicate"
"CORE-000352","CG0207","TIG0427","","Record Data","Trigger error where SEENDTC is not equal to SESTDTC of the next element.","SEENDTC is not equal to SESTDTC of the next element.",TRUE,"predicate","true-duplicate"
"CORE-000354","CG0007","TIG0292","","Record Data","Raise an error when the date portion of --DTC is an incomplete date or the date portion of DM.RFSTDTC is an incomplete date, but --DY is not empty","The date portion of --DTC is not complete date or the date portion of DM.RFSTDTC is not complete date, but --DY is not e",TRUE,"narrative","core-is-better"
"CORE-000355","CG0014","TIG0299; TIG0057","","Variable Metadata Check","Part A: Raise an error when a Required variable is not present in the dataset.","At least one required variable is missing from dataset",TRUE,"narrative","core-is-better"
"CORE-000356","CG0014","TIG0299; TIG0057","","Value Check with Dataset Metadata","Part B: Raise an error when a Required variable is null.","At least one Required variable has a null value",TRUE,"narrative","core-is-better"
"CORE-000357","CG0018","TIG0303","","Dataset Metadata Check","When a supplemental qualifier dataset is associated with a split dataset, the dataset name length must not be greater than 8 characters.","Supplemental qualifier dataset associated with a split dataset is greater than 8 characters in length",TRUE,"predicate","true-duplicate"
"CORE-000358","CG0022","TIG0306","","Record Data","Verify that when --LNKGRP is present in one domain it is also present in another domain.","LNKGRP variable is not found in any of the other domains.",TRUE,"predicate","true-duplicate"
"CORE-000361","CG0035","TIG0316","FB0919","Record Data","When VISITNUM is present in TV, VISIT and VISITNUM should have a one-to-one relationship.","VISIT and VISITNUM do not have a one-to-one relationship.",TRUE,"predicate","true-duplicate"
"CORE-000362","CG0037","","","Record Data","Raise an error when primary SOC is used for analysis and SOC Code is not equal to Body System Code","Primary analysis was used but --SOCCD and --BDSYCD are not equal",TRUE,"predicate","true-duplicate"
"CORE-000363","CG0068","TIG0338","","Record Data","When there are multiple informed consents obtained and DSDECOD = 'INFORMED CONSENT OBTAINED', the earliest DSSTDTC for each subject should be equal to","The earliest disposition date for ""INFORMED CONSENT OBTAINED"" is not equal to DM.RFICDTC",TRUE,"predicate","true-duplicate"
"CORE-000364","CG0073","","","Record Data","Raise an error when DSCAT = ""PROTOCOL MILESTONE"" but EPOCH is not equal to null.","EPOCH should be null if DSCAT is protocol milestone",TRUE,"predicate","true-duplicate"
"CORE-000365","CG0077","","","Record Data","MHCAT should not group all records.  If no smaller categorization can be applied, then it is not necessary to include or populate this variable.","MHCAT is grouping all records into one generic group. If no smaller categorization can be applied, then it is not necess",TRUE,"narrative","core-is-better"
"CORE-000366","CG0109","","","Record Data","Raise an error when subject has no records in EX but ACTARMCD is not equal to SCRNFAIL, NOTASSGN or NOTTRT.","Subject has no records in EX but ACTARMCD is not equal to SCRNFAIL, NOTASSGN or NOTTRT.",TRUE,"narrative","core-is-better"
"CORE-000367","CG0117; CG0118","","","Record Data","Raise an error when no TA.ARM exists for ACTARM in DM and ACTARM does not equal Screen Failure, Not Assigned, Not Treated, or Unplanned Treatment in D","ACTARM is not in TA.ARM, but ACTARM in DM does not equal Screen Failure, Not Assigned, Not Treated, or Unplanned Treatme",TRUE,"predicate","true-duplicate"
"CORE-000368","CG0120; CG0121","","","Record Data","ARM values in Demographics are restricted to ARM values in Trial Arms when not equal to ""Screen Failure"" or ""Not Assigned""","ARM is not in TA.ARM, but ARM in DM does not equal Screen Failure or Not Assigned.",TRUE,"predicate","true-duplicate"
"CORE-000369","CG0141","","","Record Data","Raise an error when RFENDTC is not null, but ACTARM is Screen Failure, Not Assigned, or Not Treated","RFENDTC must be null when ACTARM in (Screen Failure, Not Assigned, Not Treated).",TRUE,"narrative","core-is-better"
"CORE-000370","CG0143","TIG0387","","Record Data","DM.RFICDTC must equal the earliest DS.DSSTDTC when DSTERM indicates informed consent obtained.","DM.RFICDTC is not equal to the earliest DSSTDTC, when DSTERM indicates Informed consent obtained.",TRUE,"narrative","core-is-better"
"CORE-000371","CG0244","","","Record Data","Raise an error when ARM is ""Screen Failure"", ""Not Assigned"", ""Unplanned Treatment"" or ""Not Treated""","ARM is ""Screen Failure"", ""Not Assigned"", ""Unplanned Treatment"" or ""Not Treated""",TRUE,"predicate","true-duplicate"
"CORE-000372","CG0269","","","Record Data","For TS.TSPARMCD = ""ADDON"" records, TS.TSVAL value must equal ""N"" or ""Y"" when not missing","For TS.TSPARMCD = ""ADDON"" records, TS.TSVAL value must equal ""N"" or ""Y"" when not missing",TRUE,"predicate","true-duplicate"
"CORE-000373","CG0271","","","Record Data","For TS.TSPARMCD = ""RANDOM"" records, TS.TSVAL value must equal ""N"" or ""Y"" when not missing","For TS.TSPARMCD = ""RANDOM"" records, TS.TSVAL value must equal ""N"" or ""Y"" when not missing",TRUE,"predicate","true-duplicate"
"CORE-000374","CG0537","TIG0630","","Record Data","Trigger error when there is more than one record per subject per EPOCH","There is more than one record per subject per EPOCH",TRUE,"predicate","true-duplicate"
"CORE-000375","CG0202","","","Record Data","Raise an error when QORIG = ASSIGNED and QEVAL is not populated.","QORIG = ASSIGNED but QEVAL is not populated",TRUE,"predicate","true-duplicate"
"CORE-000376","CG0349","TIG0514","","Variable Metadata Check","Raise an error when the two first characters of a prefixed variable within a custom domain do not match the DOMAIN value.","First 2 characters of prefixed variable within custom domain do not match the DOMAIN value.",TRUE,"narrative","core-is-better"
"CORE-000377","CG0129","","","Record Data","ARMCD value must match ACTARMCD value in Demographics when ARMCD equals ""SCRFNFAIL"" or ""NOTASSGN""","DM.ARMCD must equal DM.ACTARMCD when subject is either a screen failure or not assigned to treatment",TRUE,"predicate","true-duplicate"
"CORE-000378","CG0142","","","Record Data","Raise an error when RFENDTC is null, but ACTARM is not Screen Failure, Not Assigned, or Not Treated","RFENDTC must not be null when ACTARM is a value other than Screen Failure, Not Assigned, or Not Treated.",TRUE,"predicate","true-duplicate"
"CORE-000379","CG0145","","","Record Data","Raise an error when RFSTDTC is not null, but ACTARM is either Screen Failure, Not Assigned, or Not Treated","RFSTDTC must be null when ACTARM in (Screen failure, Not Assigned, Not Treated).",TRUE,"narrative","core-is-better"
"CORE-000380","CG0146","","","Record Data","Raise an error when RFSTDTC is null, but ACTARM is neither Screen Failure, Not Assigned, nor Not Treated","RFSTDTC must not be null when ACTARM is not in (Screen Failure, Not Assigned, Not Treated.",TRUE,"predicate","true-duplicate"
"CORE-000384","CG0374","TIG0538","","Record Data","RELREC.RDOMAIN must represent a dataset that is present in the study.","RELREC.RDOMAIN does not represent a dataset present in the study",TRUE,"predicate","true-duplicate"
"CORE-000398","CG0303","","","Variable Metadata Check against Library Metadata","Raise an error when the variable label for an IG-variable does not correspond to the variable label in the Implementation Guide.","The label of the variable does not correspond to the label in the IG",TRUE,"narrative","core-is-better"
"CORE-000452","CG0432","","","Record Data","Raise an error when AGEU is empty, but AGE or AGETXT is not empty.","Missing value for AGEU, when AGE or AGETXT is provided",TRUE,"predicate","true-duplicate"
"CORE-000453","CG0433","","","Record Data","Raise an error when AGE is empty, but AGEU is not empty.","Missing value for AGE, when AGEU is provided",TRUE,"predicate","true-duplicate"
"CORE-000457","CG0373","TIG0537","","Record Data","Trigger error when SUPP--.RDOMAIN does not represent a dataset present in the study","SUPP--.RDOMAIN does not represent a dataset present in the study",TRUE,"predicate","true-duplicate"
"CORE-000467","CG0441","","","Record Data","Raise an error when TSPARMCD = STOPRULE and TSVAL is not completed.","TSVAL is missing when TSPARMCD = STOPRULE.",TRUE,"predicate","true-duplicate"
"CORE-000468","CG0276","","","Record Data","Raise an error when a record exists in TS where TSPARMCD = STYPE and TSVAL = INTERVENTIONAL but TSVAL for TSPARMCD = TRT is empty.","A record exists in TS where TSPARMCD = STYPE and TSVAL = INTERVENTIONAL but TSVAL for TSPARMCD = TRT is empty.",TRUE,"predicate","true-duplicate"
"CORE-000469","CG0277","","","Record Data","Raise an error when a record exists in TS where TSPARMCD = STYPE and TSVAL = INTERVENTIONAL but TSVAL for TSPARMCD = INTMODEL is empty.","A record exists in TS where TSPARMCD = STYPE and TSVAL = INTERVENTIONAL but TSVAL for TSPARMCD = INTMODEL is empty.",TRUE,"predicate","true-duplicate"
"CORE-000470","CG0278","","","Record Data","Raise an error when a record exists in TS where TSPARMCD = STYPE and TSVAL = INTERVENTIONAL but TSVAL for TSPARMCD = INTTYPE is empty.","A record exists in TS where TSPARMCD = STYPE and TSVAL = INTERVENTIONAL but TSVAL for TSPARMCD = INTTYPE is empty.",TRUE,"predicate","true-duplicate"
"CORE-000473","CG0272","","","Record Data","Raise an error when a record exists in TS where TSPARMCD = HLTSUBJI and TSVAL = Y but TSVAL for TSPARMCD = TDIGRP is not empty or does not equal HEALT","A record exists in TS where TSPARMCD = HLTSUBJI and TSVAL = Y but TSVAL for TSPARMCD = TDIGRP is not empty or does not e",TRUE,"narrative","core-is-better"
"CORE-000483","CG0455","","","Record Data","Raise an error when TSPARMCD = PCLAS but TSVCDREF is not equal to 'MED-RT'.","TSPARMCD = PCLAS but TSVCDREF does not equal 'MED-RT'.",TRUE,"predicate","true-duplicate"
"CORE-000484","CG0200","TIG0421","","Record Data","Within a subject, each unique RELID should be present on multiple RELREC records","Unique RELID is NOT present on multiple RELREC records within a subject.",TRUE,"narrative","core-is-better"
"CORE-000497","CG0279","","","Record Data","Raise an error when a record exists in TS where TSPARMCD = STYPE and TSVAL = INTERVENTIONAL but TSVAL for TSPARMCD = TPCLAS is empty but applicable.","A record exists in TS where TSPARMCD = STYPE and TSVAL = INTERVENTIONAL but TSVAL for TSPARMCD = PCLAS is empty when PCL",TRUE,"predicate","true-duplicate"
"CORE-000501","CG0216","","","Record Data","Raise an error if SVUPDES is not null when VISITDY is populated.","VISITDY is populated when SVUPDES is also populated.",TRUE,"predicate","true-duplicate"
"CORE-000502","CG0369","TIG0533","","Record Data","Raise an error when RDOMAIN is populated but the referenced RDOMAIN doesn't exist as a dataset in the present study","RDOMAIN does not represent a dataset present in the study.",TRUE,"narrative","core-is-better"
"CORE-000504","CG0283","","","Record Data","Raise an error when TSVAL for TSPARMCD=DCUTDTC is not a valid date/time","Invalid date for TSVAL for TSPARMCD = DCUTDTC (Data Cutoff Date)",TRUE,"predicate","true-duplicate"
"CORE-000505","CG0285","","","Record Data","Study Start Date (SSTDTC) value in the TS dataset should be populated in ISO 8601 format.","TSVAL where TSPARMCD = SSTDTC is not in ISO 8601 format.",TRUE,"predicate","true-duplicate"
"CORE-000506","CG0286","","","Record Data","Raise an error when TSVAL for TSPARMCD=SENDTC is not a valid date/time","Invalid date for TSVAL for TSPARMCD = SENDTC (Study End Date)",TRUE,"predicate","true-duplicate"
"CORE-000510","CG0017","","","Dataset Metadata Check","Split datasets (excluding supplemental qualifiers) is expected to have a have a length of 3 or 4 characters","Split dataset name is not 3 or 4 characters in length",TRUE,"predicate","true-duplicate"
"CORE-000515","CG0412","","","Record Data","Raise an error when DM.ACTARMCD does not equal ""SCRNFAIL"", ""NOTASSGN"" or ""NOTTRT"", and there are no DS records for the same subject","DM.ACTARMCD does not equal ""SCRNFAIL"", ""NOTASSGN"" or ""NOTTRT"" but there are no DS records for the same subject",TRUE,"narrative","core-is-better"
"CORE-000517","","","FB4003","Record Data","Total Daily Dose (--DOSTOT) value should not be negative.","Negative value for --DOSTOT.",TRUE,NA,"core-only"
"CORE-000518","","","FB4004","Record Data","Value for Treatment Vehicle Amount (--VAMT) should not be negative.","Negative value for --VAMT.",TRUE,NA,"core-only"
"CORE-000522","","","FB1401","Record Data","Category for Disposition Event (DSCAT) should be populated.","Missing DSCAT value for Disposition Event.",TRUE,NA,"core-only"
"CORE-000527","CG0209","TIG0428","","Record Data","Trigger error where element is not the last element and SEENDTC is null.","SEENDTC is null when element is not the last.",TRUE,"predicate","true-duplicate"
"CORE-000529","CG0006","TIG0291; TIG0274; TIG0275","FB1603","Record Data","Raise an error when --DY is not calculated as per the study day algorithm as a non-zero integer value when the date portion of --DTC is complete and t","--DY is not correctly calculated even though the date portion of --DTC is complete, the date portion of RFSTDTC is compl",TRUE,"narrative","core-is-better"
"CORE-000530","CG0119","","","Record Data","Raise an error when ACTARM is Screen Failure or Not Assigned, and ACTARM does not equal ARM","ACTARM should be equal to ARM when ACTARM is Screen Failure or Not Assigned.",TRUE,"predicate","true-duplicate"
"CORE-000531","CG0126; CG0128","","","Record Data","ARMCD values in Demographics are restricted to ARMCD values in  Trial Arms when DM.ARMCD is not equal to ""SCRNFAIL"" or ""NOTASSGN""","DM.ARMCD must equal SCRNFAIL or NOTASSGN if the value is not present in TA.ARMCD",TRUE,"predicate","true-duplicate"
"CORE-000532","CG0275","","","Record Data","Raise an error when a record exists in TS where TSPARMCD = ADDON and TSVAL = Y but TSVAL for TSPARMCD = CURTRT is empty.","A record exists in TS where TSPARMCD = ADDON and TSVAL = Y but TSVAL for TSPARMCD = CURTRT is empty.",TRUE,"predicate","true-duplicate"
"CORE-000533","CG0138","","","Record Data","","A SUPP domain other than SUPPDM contains population flags (name fragments reserved)",TRUE,"narrative","core-is-better"
"CORE-000534","CG0248","TIG0452; TIG0148","","Record Data","TAETORD must be an integer","TAETORD is not an integer",TRUE,"predicate","true-duplicate"
"CORE-000535","CG0662; CG0620","TIG0066; TIG0661","","Record Data","Trigger error when the order of --SEQ is not chronological (based on --STDTC) within USUBJID","--SEQ is not chronological (based on --STDTC) within USUBJID",TRUE,"narrative","core-is-better"
"CORE-000538","CG0334","TIG0500","","Record Data","Trigger error when RDOMAIN does not match characters 5 and 6 of the Supplementary dataset name","RDOMAIN does not match characters 5 and 6 of the dataset name",TRUE,"narrative","core-is-better"
"CORE-000539","CG0332","TIG0498","","Dataset Metadata Check","Raise an error when split domains (i.e three/four-letter domain name) do not have a two-letter parent domain present in the study.","Split dataset is present but the two-Letter parent domain is missing.",TRUE,"narrative","core-is-better"
"CORE-000540","CG0333","TIG0499","","Dataset Metadata Check","Raise an error when parent domain referenced in Findings About dataset name is not present in the study.","Parent domain referenced in Findings About dataset name is not present in the study",TRUE,"narrative","core-is-better"
"CORE-000541","CG0372","TIG0536","","Record Data","Part B - Raise an error when IETESTCD > 8 chars or contains more than only letters, numbers and underscores, or starts with a number.","IETESTCD > 8 chars or contains more than only letters, numbers, underscores, or starts with a number.",TRUE,"narrative","core-is-better"
"CORE-000542","","TIG0280","FB3102","Record Data","Raise an error when --STRESC is populated with a numeric value, but --STRESN is not populated, or --STRESN is not equal to --STRESC.","--STRESC is numeric but --STRESN is not populated or not equal to --STRESC.",TRUE,NA,"core-only"
"CORE-000543","CG0127","","","Record Data","Raise an error when ACTARMCD equals ""SCRFNFAIL"" or ""NOTASSGN"" but ARMCD doesn't equal ACTARMCD.","ARMCD does not equal ACTARMCD when subject is either a screen failure or not assigned to treatment",TRUE,"predicate","true-duplicate"
"CORE-000544","CG0028","","","Record Data","Excluding TS.TSSEQ, raise an error when --SEQ is not a unique number per USUBJID per domain, or not a unique number per POOLID per domain, including w","--SEQ is not a unique number per USUBJID per domain, nor a unique number per POOLID per domain, including when the domai",TRUE,"narrative","core-is-better"
"CORE-000550","CG0013; CG0351","TIG0298","","Variable Metadata Check","Raise an error when a variable is not an allowed variable for an Observation Class","Variables not listed in the Model List of Allowed Variables for Observation Class should be in SUPPQUAL.",TRUE,"narrative","core-is-better"
"CORE-000552","CG0220","TIG0434","","Record Data","Study day must be calculated using the algorithm detailed in the SDTMIG.","--STDY is not properly calculated per study day algorithm",TRUE,"predicate","true-duplicate"
"CORE-000553","CG0222","TIG0436","","Record Data","Study day must be calculated using the algorithm detailed in the SDTMIG.","--ENDY is not properly calculated per study day algorithm",TRUE,"predicate","true-duplicate"
"CORE-000562","CG0273","","","Record Data","Raise an error when a record exists in TS where TSPARMCD = HLTSUBJI and TSVAL = N but TSVAL for TSPARMCD = TDIGRP is empty.","A record exists in TS where TSPARMCD = HLTSUBJI and TSVAL = N but TSVAL for TSPARMCD = TDIGRP is empty.",TRUE,"predicate","true-duplicate"
"CORE-000563","CG0282","","","Record Data","TSVAL must be either Y or N when TSPARMCD is ADAPT","TSVAL must be either Y or N when TSPARMCD is ADAPT",TRUE,"predicate","true-duplicate"
"CORE-000564","CG0458","","","Record Data","Raise an error when TSPARMCD = INDIC or TSPARMCD = TDIGRP but TSVCDREF is not equal to 'SNOMED'.","TSPARMCD = INDIC or TSPARMCD = TDIGRP but TSVCDREF is not equal to 'SNOMED'.",TRUE,"predicate","true-duplicate"
"CORE-000571","CG0024","TIG0307","","Record Data","Verify that when --LNKID is present in one domain it is also present in another domain.","LNKID variable is only found in one domain.",TRUE,"predicate","true-duplicate"
"CORE-000572","CG0235","TIG0444","","Record Data","Trigger error when --ENRTPT is not in ('BEFORE', 'COINCIDENT', 'ONGOING', 'AFTER', 'UNKNOWN')","--ENRTPT is not in ('BEFORE', 'COINCIDENT', 'ONGOING', 'AFTER', 'UNKNOWN')",TRUE,"predicate","true-duplicate"
"CORE-000575","CG0219","TIG0266; TIG0433","","Variable Metadata Check","There must be at least one timing variable for any of the domains based on the three general observation classes","No timing variable is provided",TRUE,"narrative","core-is-better"
"CORE-000579","CG0408","","","Dataset Metadata Check","Raise an error when a dataset has no records.","Dataset has no record.",TRUE,"narrative","core-is-better"
"CORE-000580","CG0325","TIG0495","","Record Data","The combination of TESTRL, TEENRL, and TEDUR must be unique for each ETCD.","The combination of TESTRL, TEENRL, and TEDUR is not unique for each ETCD.",TRUE,"predicate","true-duplicate"
"CORE-000581","CG0368","TIG0532","","Domain Presence Check","DM dataset should be present.","DM dataset is missing.",TRUE,"predicate","true-duplicate"
"CORE-000582","CG0262","","","Record Data","Raise an error when TSVAL(n+1) ^= null and TSVALn = null","TSVALn is null when TSVAL(n+1) is populated.",TRUE,"narrative","core-is-better"
"CORE-000585","CG0313","","","Record Data","Raise an error when one of the following variables; STUDYID, DOMAIN, USUBJID (or POOLID) or --SEQ is not present in the dataset.","One of following variables is not present in the dataset; STUDYID, DOMAIN, USUBJID (or POOLID) or --SEQ.",TRUE,"narrative","core-is-better"
"CORE-000586","CG0398","","","Record Data","Raise an error when DSCAT = DISPOSITION EVENT and there is more than one record per subject for an EPOCH","Multiple records exist within the same EPOCH for a subject when DSCAT = DISPOSITION EVENT",TRUE,"predicate","true-duplicate"
"CORE-000587","CG0284","","","Record Data","Check that TVAL is an integer > 0 when TSPARMCD is NARMS","TSVAL must be an integer greater than zero when TSPARMCD is NARMS",TRUE,"predicate","true-duplicate"
"CORE-000594","CG0359","TIG0524; TIG0205","","Variable Metadata Check","Raise an error when a variable label is not in title case","Variable label is not in title case.",TRUE,"narrative","core-is-better"
"CORE-000597","CG0043","TIG0322","","Record Data","When SUPPAE.QNAM=AESOSP is present, a record with AESMIE=Y should be present","Missing AESMIE=Y where SUPPAE.QNAM=AESOSP",TRUE,"predicate","true-duplicate"
"CORE-000598","CG0413","TIG0568; TIG0037","","Dataset Metadata Check","The dataset name must begin with the DOMAIN value.","Dataset name does not begin with DOMAIN value",TRUE,"narrative","core-is-better"
"CORE-000616","","","FB4403","Record Data","When Planned Start of Assessment Interval (--STINT) is populated, Time Point Reference (--TPTREF) should also be populated.","--STINT is populated, but --TPTREF is missing.",TRUE,NA,"core-only"
"CORE-000642","","","FB4404","Record Data","When Planned End of Assessment Interval (--ENINT) is populated, Time Point Reference (--TPTREF) should also be populated.","--ENINT is populated, but --TPTREF is missing.",TRUE,NA,"core-only"
"CORE-000643","","","FB2601","Record Data","Records with a baseline flag (--BLFL) have a non missing value in character standard result variable (--STRESC)","BLFL is set to ""Y"", but no value for STRESC is provided",TRUE,NA,"core-only"
"CORE-000655","","","FB2501","Record Data","Values in ARMCD and ACTARMCD should match","Values between ARMCD and ACTARMCD are not matching",TRUE,NA,"core-only"
"CORE-000656","","","FB2502","Record Data","Values in ARM and ACTARM should match","Values between ARM and ACTARM are not matching",TRUE,NA,"core-only"
"CORE-000657","","","FB3409","Record Data","When Adverse Event Outcome (AEOUT) is populated with 'NOT RECOVERED/NOT RESOLVED', then the End Date/Time of Adverse Event (AEENDTC) should not be pop","AEENDTC is populated, when AEOUT = NOT RECOVERED/NOT RESOLVED.",TRUE,NA,"core-only"
"CORE-000658","","","FB3412","Record Data","Date/Time of Informed Consent (RFICDTC) should be prior or equal to the Date/Time of First Study Treatment (RFXSTDTC).","RFICDTC falls after RFXSTDTC.",TRUE,NA,"core-only"
"CORE-000659","","","FB3410","Record Data","When Adverse Event Outcome (AEOUT) is populated with RECOVERED/RESOLVED, then the End Date/Time of Adverse Event (AEENDTC) should be populated.","AEENDTC is missing, when AEOUT = RECOVERED/RESOLVED.",TRUE,NA,"core-only"
"CORE-000672","","","FB3901","Record Data","Normal Range Upper Limit-Standard Units (--STNRHI) should be greater than the Normal Range Lower Limit-Standard Units (--STNRLO).","--STNRHI is less than or equal to --STNRLO.",TRUE,NA,"core-only"
"CORE-000679","","","FB0608","Record Data","When Death flag (DTHFL) in the DM dataset is populated as 'Y' then a record should be present in the DS dataset where DSDECOD = 'DEATH' for the corres","DTHFL in DM dataset is ""Y"" but a record is missing in DS dataset where DSDECOD = ""DEATH"".",TRUE,NA,"core-only"
"CORE-000685","CG0571","","FB0923","Record Data","VISITNUM is present in the dataset and --TPTREF is not present in the dataset then --TPT and --TPTNUM should have a one-to-one relationship per unique","--TPT and --TPTNUM do not have a one-to-one relationship per unique value of VISITNUM.",TRUE,"narrative","core-is-better"
"CORE-000686","CG0572","","FB0924","Record Data","VISITNUM not present in dataset and --TPTREF present in dataset then --TPT and --TPTNUM should have a one-to-one relationship per unique values of --T","--TPT and --TPTNUM do not have a one-to-one relationship per unique value of --TPTREF.",TRUE,"narrative","core-is-better"
"CORE-000689","CG0573","","FB0925","Record Data","VISITNUM and --TPTREF are present then --TPT and --TPTNUM should have a one-to-one relationship per unique combination of VISITNUM and --TPTREF values","--TPT and --TPTNUM do not have a one-to-one relationship per unique combination of VISITNUM and --TPTREF values.",TRUE,"narrative","core-is-better"
"CORE-000699","","","FB3001","Record Data","Standard units should be consistent within the same assessment (having the same --TESTCD, --CAT, --SCAT, --SPEC, --METHOD values)","Standards units are inconsistent within the same test (category, sub-category, specimen and method)",TRUE,NA,"core-only"
"CORE-000700","","","FB3204","Record Data","When Study Day of Visit/Collection/Exam (--DY) is present in the dataset, then the Date/Time of Collection (--DTC) should also be present in the datas","Date/Time of Collection (--DTC) variable is missing when Study Day of Visit/Collection/Exam (--DY) is present.",TRUE,NA,"core-only"
"CORE-000701","","","FB2201","Record Data","EPOCH should be populated for clinical subject-level observations.","EPOCH is missing for clinical subject-level observation.",TRUE,NA,"core-only"
"CORE-000705","","","FB0610","Record Data","When Death flag (DTHFL) in the DM dataset is populated as 'Y' then Date/Time of Death (DTHDTC)should be populated in the DM dataset for the correspond","DTHFL is ""Y"", but DTHDTC is not populated in the DM dataset.",TRUE,NA,"core-only"
"CORE-000706","","","FB0906","Record Data","--LLTCD and --LLT should have a one-to-one relationship.","--LLTCD and --LLT do not have a one-to-one relationship.",TRUE,NA,"core-only"
"CORE-000707","","","FB3208","Record Data","Study Day of Visit/Collection/Exam (--DY) should be less than or equal to Study Day of End of Observation (--ENDY).","--DY is greater than --ENDY.",TRUE,NA,"core-only"
"CORE-000708","","","FB3207","Record Data","When Study Day of End of Observation (--ENDY) is present in the dataset, then the End Date/Time of Observation (--ENDTC) should also be present in the","--STDY is greater than --ENDY.",TRUE,NA,"core-only"
"CORE-000709","","","FB0607","Record Data","When a record is present in the CE dataset where CETERM or CEDECOD  = 'DEATH' then death flag (DTHFL) should be populated as 'Y' in the DM dataset for","CETERM or CEDECOD is 'DEATH' in CE dataset, but DTHFL in DM dataset is not ""Y"".",TRUE,NA,"core-only"
"CORE-000710","CG0233","TIG0442","","Record Data","Trigger error when --STRTPT is not in ('BEFORE', 'COINCIDENT', 'AFTER', 'UNKNOWN') and --STTPT is prior to the date of collection or assessment.","--STRTPT is not in ('BEFORE', 'COINCIDENT', 'AFTER', 'UNKNOWN')",TRUE,"predicate","true-duplicate"
"CORE-000711","","","FB3404","Record Data","Subject Reference Start Date/Time (RFSTDTC) should be prior or equal to the Subject Reference End Date/Time (RFENDTC).","RFSTDTC falls after RFENDTC.",TRUE,NA,"core-only"
"CORE-000712","CG0370","TIG0534","","Record Data","Part A - Raise and error when IDVAR in SUPP-- is not populated with a valid variable from the dataset referenced in RDOMAIN.","Value for IDVAR in SUPP-- does not represent a variable present in the dataset referenced in RDOMAIN.",TRUE,"narrative","core-is-better"
"CORE-000713","","","FB3411","Record Data","Date/Time of Informed Consent (RFICDTC) should be prior or equal to the Subject Reference Start Date/Time (RFSTDTC).","RFICDTC falls after RFSTDTC.",TRUE,NA,"core-only"
"CORE-000714","","","FB3408","Record Data","Date/Time of First Study Treatment (RFXSTDTC) variable value should be prior or equal to the Date/Time of Last Study Treatment (RFXENDTC).","RFXSTDTC falls after RFXENDTC.",TRUE,NA,"core-only"
"CORE-000716","","","FB0911","Record Data","--SOCCD and --SOC should have a one-to-one relationship.","--SOCCD and --SOC do not have a one-to-one relationship.",TRUE,NA,"core-only"
"CORE-000717","","","FB3401","Record Data","Start Date/Time of Adverse Event (AESTDTC) should be prior or equal to the Start Date/Time of the latest Disposition Event (DSSTDTC).","AESTDTC falls after the last DSSTDTC.",TRUE,NA,"core-only"
"CORE-000718","","","FB3209","Record Data","Start Date/Time of Observation (--STDTC) should be prior or equal to the End Date/Time of Observation (--ENDTC).","--STDTC falls after  --ENDTC.",TRUE,NA,"core-only"
"CORE-000719","","","FB0908","Record Data","--HLGTCD and --HLGT should have a one-to-one relationship.","--HLGTCD and --HLGT do not have a one-to-one relationship.",TRUE,NA,"core-only"
"CORE-000720","","","FB3406","Record Data","Date/Time of Collection (--DTC) variable value should be prior or equal to Date/Time of End of Participation (RFPENDTC).","--DTC falls after RFPENDTC.",TRUE,NA,"core-only"
"CORE-000723","","","FB0907","Record Data","--HLTCD and --HLT should have a one-to-one relationship.","--HLTCD and --HLT do not have a one-to-one relationship.",TRUE,NA,"core-only"
"CORE-000726","","","FB5701","Record Data","When Ethnicity was collected and it was not mapped as ""HISPANIC OR LATINO"" or ""NOT HISPANIC OR LATINO"".","Ethnicity has been collected but the values is not mapped to ""HISPANIC OR LATINO"" or ""NOT HISPANIC OR LATINO""",TRUE,NA,"core-only"
"CORE-000728","","","FB0904","Record Data","TSVALCD and TSVAL should have a one-to-one relationship.","TSVALCD and TSVAL do not have a one-to-one relationship.",TRUE,NA,"core-only"
"CORE-000729","","","FB0912","Record Data","INVID and INVNAM shoumd have a one-to-one relationship.","INVNAM and INVID do not have a one-to-one relationship.",TRUE,NA,"core-only"
"CORE-000730","CG0438","","","Record Data","When TSPARMCD is equal to AGEMIN and TSVAL is not null, TSVAL should conform to ISO 8601","TSVAL does not conform to ISO 8601",TRUE,"narrative","core-is-better"
"CORE-000731","CG0439","","","Record Data","When TSPARMCD = LENGTH and TSVAL ^= NULL, TSVAL needs to conform to ISO 8601 time period","TSVAL is not NULL and does not conform to ISO 8601 time period",TRUE,"narrative","core-is-better"
"CORE-000732","","","FB3103","Record Data","--STRESC is not populated with a numeric value, but --STRESN is not empty.","--STRESC is not numeric but --STRESN is not empty",TRUE,NA,"core-only"
"CORE-000733","CG0281","","","Record Data","At least one observation where TSPARMCD = TRT is present and there is only one investigational treatment","TSPARMCD = RANDQT record is not present",TRUE,"narrative","core-is-better"
"CORE-000735","CG0444","","","Record Data","When TSPARMCD is equal to COMPTRT, CURTRT or TRT, TSVCDREF should equal UNII","Throw error when TSPARMCD is equal to COMPTRT, CURTRT, or TRT and TSVCDREF ^= UNII",TRUE,"predicate","true-duplicate"
"CORE-000736","","","FB1116","Record Data","Either AGE or AGETXT is in the list of TSPARMCDs with TSVAL populated, not both.","AGE and AGETXT are in the list of TSPARAMCDs with TSVAL populated.",TRUE,NA,"core-only"
"CORE-000739","CG0407","","","Domain Presence Check","Trigger error when study includes protocol-specified study treatment and EX is not present","EX is not present in study when study includes protocol-specified study treatment",TRUE,"narrative","core-is-better"
"CORE-000740","CG0287","","","Record Data","A required value of TSPARMCD is not found","A required value of TSPARMCD is not found",TRUE,"narrative","core-is-better"
"CORE-000741","","","FB1111","Record Data","The set  ('INTMODEL’, 'INTTYPE','PCLASS') is not in the list of TSPARAMCD with TSVAL populated.","The set  ('INTMODEL’, 'INTTYPE','PCLASS') is not in the list of TSPARAMCD with TSVAL populated.",TRUE,NA,"core-only"
"CORE-000742","","","FB1110","Record Data","TSVALNF is not equal to NA when TSPARAMCD=INDIC","TSVALNF is not equal to NA when TSPARAMCD=INDIC",TRUE,NA,"core-only"
"CORE-000743","","","FB0918","Record Data","IETESTCD and IETEST should have a one-to-one relationship.","IETESTCD and IETEST do not have a one-to-one relationship.",TRUE,NA,"core-only"
"CORE-000744","CG0174","TIG0403","","Record Data","Raise an error when a related record is present in the parent domain dataset but FAOBJ is not equal to the --TERM, --TRT or --DECOD of the parent doma","Related record is present in the parent domain dataset but FAOBJ is not equal to the ""TERM"", ""TRT"" or ""DECOD"" of the par",TRUE,"blocker:requires-dynamic-parent-domain-link-op","cg-is-better"
"CORE-000745","","","FB0915","Record Data","OIPARMCD and OIPARM should have a one-to-one relationship.","OIPARMCD and OIPARM do not have a one-to-one relationship.",TRUE,NA,"core-only"
"CORE-000746","","","FB5801","Record Data","When ethnicity term 'Spanish origin' is collected (SUPPDM.CETHNIC), it should be mapped to Ethnicity (ETHNIC) 'HISPANIC OR LATINO' in the DM dataset","Ethnicity Term 'Spanish origin' (SUPPDM.CETHNIC) is collected but is not mapped as ETHNIC = HISPANIC OR LATINO.",TRUE,NA,"core-only"
"CORE-000747","","","FB6001","Record Data","When Race Term 'Haitian' or 'Negro' (SUPPDM.CRACE) is collected, it should be mapped to Race (RACE) 'BLACK OR AFRICAN AMERICAN' in the DM dataset.","Race Term 'Haitian' or 'Negro' is collected (SUPPDM.CRACE) but is not mapped to RACE = BLACK OR AFRICAN AMERICAN in DM d",TRUE,NA,"core-only"
"CORE-000757","CG0602","TIG0656","","Record Data","When findings are collected about an intervention, and the interventions parent record exists and --DECOD = null, FAOBJ should be equal to --TRT.","Interventions parent record exists and --DECOD = null, but FAOBJ is not equal to --TRT.",TRUE,"narrative","core-is-better"
"CORE-000758","CG0534","TIG0627","","Record Data","Raise an error when milestone associated with RFSTDTC is start of treatment and ARMNRS is not null and different from 'UNPLANNED TREATMENT', but RFSTD","Milestone associated with RFSTDTC is start of treatment and ARMNRS is not null and different from 'UNPLANNED TREATMENT',",TRUE,"narrative","core-is-better"
"CORE-000760","","","FB3413","Record Data","Date/Time of First Challenge Agent Admin (RFCSTDTC) should be prior or equal to the Date/Time of Last Challenge Agent Admin (RFCENDTC).","RFCSTDTC falls after RFCENDTC.",TRUE,NA,"core-only"
"CORE-000761","CG0289","","","Record Data","Trigger error when TSVCDREF = 'CDISC' and TSVCDVER is not a valid published version (date)","TSVCDVER is not a valid published version (date)",TRUE,"predicate","true-duplicate"
"CORE-000763","CG0232","TIG0441","","Record Data","Trigger error when --STRTPT is not in ('BEFORE', 'COINCIDENT', 'UNKNOWN')","--STTPT is equal to the date of collection or assessment but --STRTPT is not in ('BEFORE', 'COINCIDENT',  'UNKNOWN').",TRUE,"predicate","true-duplicate"
"CORE-000765","","","FB2401","Dataset Metadata Check","The submitted dataset is larger than 5 GB","The submitted dataset is larger than 5 GB",TRUE,NA,"core-only"
"CORE-000766","CG0601","","","Record Data","When findings are collected, and the Events parent record exists and --DECOD is null, FAOBJ should not be equal to --TERM","Related record is present in the parent domain dataset and ""Other, specify"" value was coded.",TRUE,"narrative","core-is-better"
"CORE-000767","CG0603","","","Record Data","When findings are collected, and the parent record exists and --DECOD is not null, FAOBJ should not be equal to --DECOD","Parent record exists and --DECOD is not null, but FAOBJ is not equal to --DECOD.",TRUE,"narrative","core-is-better"
"CORE-000774","","","FB4202","Record Data","When a test is not done (--STAT = NOT DONE), the Reason Not Done (--REASND) should be populated.","--STAT = NOT DONE, but --REASND is missing.",TRUE,NA,"core-only"
"CORE-000776","","","FB3203","Record Data","When End Date/Time of Observation (--ENDTC) is present in the dataset, then the Study Day of End of Observation (--ENDY) should also be present in the","Study Day of End of Observation (--ENDY) variable is missing when End Date/Time of Observation (--ENDTC) is present.",TRUE,NA,"core-only"
"CORE-000777","CG0502","","","Domain Presence Check","Raise an error when variable RELMIDS is present in any of the dataset and TM dataset is missing in a study.","TM dataset is missing when RELMIDS variable is present in any of the dataset.",TRUE,"predicate","true-duplicate"
"CORE-000778","CG0650","","","Dataset Metadata Check","When an Associated Persons non-supplemental qualifier dataset is associated with a split dataset, the dataset name length must be greater than 4 and l","Associated Persons non-supplemental qualifier dataset associated with a split dataset does not have a dataset name with ",TRUE,"narrative","core-is-better"
"CORE-000779","CG0376","","","Record Data","TDSTOFF must be equal to 0 or a positive value in ISO 8601 Duration format","TDSTOFF is not equal to zero or a positive value in ISO 8601 Duration format",TRUE,"predicate","true-duplicate"
"CORE-000783","CG0314","","","Record Data","Raise an error when SUPP--.QNAM is present in dataset, but value of SUPP--.QNAM is equal to a variable name defined in the corresponding SDTM version.","SUPP--.QNAM is present in the dataset, but the value of SUPP--.QNAM equals a variable name defined in the corresponding ",TRUE,"narrative","core-is-better"
"CORE-000784","CG0217","TIG0431","","Record Data","Raise an error when variable TAETORD values don't match between Subject Visits (SV) and Subject Elements (SE) datasets.","TAETORD values don't match between Subject Visits (SV) and Subject Elements (SE) datasets.",TRUE,"predicate","true-duplicate"
"CORE-000785","CG0429","TIG0583","","Record Data","Part B - Raise an error when IESCAT is not empty, but IECAT is empty.","IECAT should not be null when IESCAT is populated",TRUE,"predicate","true-duplicate"
"CORE-000786","CG0430","TIG0584","","Record Data","Part B - Raise an error when IESCAT exists in a dataset, but IECAT does not exist.","IESCAT exists in a dataset, but IECAT does not exist.",TRUE,"predicate","true-duplicate"
"CORE-000787","CG0291","","","Record Data","Raise an error when TSVALNF is empty and TSVAL is populated with values or synonyms of values in the ISO 21090 null flavor codelist (or other terms th","TSVAL is populated with an ISO 21090 null flavor or null flavor description.",TRUE,"narrative","core-is-better"
"CORE-000790","","","FB2505","Record Data","If a subject is assigned to an arm, the subject should have a record in EX.","Subject is assigned to an arm code (randomized) but has no record in EX.",TRUE,NA,"core-only"
"CORE-000791","","","FB0903","Record Data","ACTARMCD and ACTARM should have a one-to-one relationship.","ACTARMCD and ACTARM do not have a one-to-one relationship.",TRUE,NA,"core-only"
"CORE-000792","","","FB0905","Record Data","--CLASCD and --CLAS should have a one-to-one relationship.","--CLASCD and --CLAS do not have a one-to-one relationship.",TRUE,NA,"core-only"
"CORE-000793","","","FB1601","Record Data","Collection study day (--DY) should be present when date/time of collection (--DTC) is populated","Collection study day (--DY) is missing when date/time of collection (--DTC) is populated.",TRUE,NA,"core-only"
"CORE-000841","","","FB0612","Record Data","End Date/Time of Adverse Event (AEENDTC) in AE dataset of Adverse Event where AEOUT = 'FATAL' should be equal to the Date/Time of Death (DTHDTC) in th","AEENDTC in AE dataset of AE where AEOUT = 'FATAL' is not equal to DTHDTC in the DM dataset.",TRUE,NA,"core-only"
"CORE-000842","CG0213","","","Record Data","When SVUPDES is not populated, then the VISITNUM should be equal to a VISITNUM in TV","SVUPDES is not populated or does not exist, but the VISITNUM does not equal a VISITNUM present in TV",TRUE,"predicate","true-duplicate"
"CORE-000843","CG0214","","","Record Data","When SVUPDES is populated, then the VISITNUM should not be equal to a VISITNUM in TV","SVUPDES is populated, but the VISITNUM equals a VISITNUM present in TV",TRUE,"narrative","core-is-better"
"CORE-000844","CG0531","","","Domain Presence Check","Part A - Raise an error when RACE in DM equals 'MULTIPLE' and SUPPDM dataset is not present.","RACE in DM equals 'MULTIPLE' but multiple races are not collected in SUPPDM.",TRUE,"narrative","core-is-better"
"CORE-000845","CG0531","","","Record Data","Part B -  Raise an error when RACE in DM equals 'MULTIPLE' but no records are present in SUPPDM.","RACE in DM equals 'MULTIPLE' but multiple races are not collected in SUPPDM.",TRUE,"narrative","core-is-better"
"CORE-000846","CG0531","","","Record Data","Part C - Raise an error when RACE in DM equals 'MULTIPLE' but no multiple RACE records are present in SUPPDM.","RACE in DM equals 'MULTIPLE' but multiple races are not collected in SUPPDM.",TRUE,"narrative","core-is-better"
"CORE-000852","CG0330; CG0664","TIG0698","","Variable Metadata Check","Raise an error when variables are not in the specified order","Variables are not in the correct order as shown in SDTM for the observation class.",TRUE,"narrative","core-is-better"
"CORE-000853","","","FB1602","Record Data","Collection study day (--DY) should be populated when date/time of collection (--DTC) is populated","Collection study day (--DY) is not populated when date/time of collection (--DTC) is populated.",TRUE,NA,"core-only"
"CORE-000862","","","FB3205","Record Data","When Study Day of Start of Observation (--STDY) is present in the dataset, then the Start Date/Time of Observation (--STDTC) is also present in the da","Start Date/Time of Observation (--STDTC) variable is missing when Study Day of Start of Observation (--STDY) is present.",TRUE,NA,"core-only"
"CORE-000863","","","FB3101","Record Data","When --STRESC is populated with a numeric value, --STRESN should be populated.","--STRESC is populated with a numeric value, but --STRESN is not populated.",TRUE,NA,"core-only"
"CORE-000864","","","FB3206","Record Data","When Study Day of End of Observation (--ENDY) is present in the dataset, then the End Date/Time of Observation (--ENDTC) is also present in the datase","End Date/Time of Observation (--ENDTC) variable is missing when Study Day of End of Observation (--ENDY) is present.",TRUE,NA,"core-only"
"CORE-000865","","","FB4405","Record Data","When Planned Elapsed Time from Time Point Ref (--ELTM) is populated, Time Point Reference (--TPTREF) should also be populated.","--ELTM is populated, but --TPTREF is missing.",TRUE,NA,"core-only"
"CORE-000866","","","FB3210","Record Data","Date/Time of Collection (--DTC) should be prior or equal to the End Date/Time of Observation (--ENDTC)","--DTC falls after --ENDTC.",TRUE,NA,"core-only"
"CORE-000867","","","FB1501","Value Check with Variable Metadata","Text variable in submitted dataset should not contain leading spaces ' '.","Text variable contains leading spaces.",TRUE,NA,"core-only"
"CORE-000880","","","FB4006","Record Data","Planned Duration (--PDUR) value should not be negative.","Negative value for --PDUR.",TRUE,NA,"core-only"
"CORE-000885","","","FB2302","Record Data","All subjects in the Demographics domain who are participating in a study that includes an interventional product must have at least one corresponding ","A subject has a record in DM but not in EX while participating in an interventional study",TRUE,NA,"core-only"
"CORE-000886","","","FB2306","Record Data","All subjects that have no record in the Exposure domain who are participating in a study that includes an interventional product should have ARMNRS po","A subject has a no record in EX but is not populated ARMNRS while participating in an interventional study",TRUE,NA,"core-only"
"CORE-000887","","","FB2301","Record Data","All subjects in the Demographics domain who are participating in a study that includes an interventional product must have at least one corresponding ","A subject has a record in DM but not in EX while participating in an interventional study",TRUE,NA,"core-only"
"CORE-000889","","","FB3902","Record Data","Normal Range Upper Limit-Original Units (--ORNRHI) is greater than the Normal Range Lower Limit-Original Units (--ORNRLO).","--ORNRHI is less than or equal to --ORNRLO.",TRUE,NA,"core-only"
"CORE-000890","","","FB1502","Value Check with Variable Metadata","Text variable in submitted dataset should not contain  '.' as an entire value.","Text variable contains '.' as an entire value.",TRUE,NA,"core-only"
"CORE-000892","","","FB4301","Record Data","When Eed timepoint (--ENDTC, --ENRF or --ENRTPT) is populated, related start timepoint (--STDTC, --STRF or --STRTPT should also be populated.","End timepoint is populated but start timepoint is missing.",TRUE,NA,"core-only"
"CORE-000901","","","FB6901","Record Data","The values of PPCAT and PCTEST do not match at the same reference timepoint","The values of PPCAT and PCTEST do not match at the same reference timepoint",TRUE,NA,"core-only"
"CORE-000913","","","FB0611","Record Data","Disposition date time (DSSTDTC) for DEATH record in the DS dataset should be equal to the Date of Death (DTHDTC) in the DM dataset for the correspondi","DSSTDTC for DEATH record in DS dataset is not equal to DTHDTC in the DM dataset.",TRUE,NA,"core-only"
"CORE-000914","","","FB2603","Record Data","There should be only one record with a baseline flag and non missing character standard result value having the same --TESTCD, --CAT, --SCAT, --SPEC, ","There are multiple records per assigned baseline flag (--BLFL).",TRUE,NA,"core-only"
"CORE-000915","","","FB2604","Record Data","There should be only one record with a last observation before exposure flag and non missing character standard result value having the same --TESTCD,","There are multiple records per assigned last observation before exposure flag (--LOBXFL).",TRUE,NA,"core-only"
"CORE-000916","CG0370","TIG0534","","Record Data","Part B - Raise and error when IDVAR in RELREC is not populated with a valid variable from the dataset referenced in RDOMAIN.","Value for IDVAR in RELREC does not represent a variable present in the dataset referenced in RDOMAIN.",TRUE,"narrative","core-is-better"
"CORE-000927","","","FB2304","Record Data","All subjects in the Exposure domain who are participating in a study that includes an interventional product must be assigned to an ARM.","A subject has a record in EX but is not assigned to a treatment while participating in an interventional study",TRUE,NA,"core-only"
"CORE-000929","CG0001","TIG0289; TIG0090","","Define Item Metadata Check against Library Metadata","Raise and error when the DOMAIN Code is not a valid Domain Code published by CDISC.","DOMAIN Code is not a published DOMAIN Code in CDISC Controlled Terminology.",TRUE,"predicate","true-duplicate"
"CORE-000952","","","FB3407","Record Data","End Date/Time (--ENDTC) variable value should be prior or equal to the Date/Time of End of Participation (RFPENDTC).","--ENDTC falls after RFPENDTC.",TRUE,NA,"core-only"
"CORE-000953","CG0370","TIG0534","","Record Data","Part C - Raise and error when IDVAR in CO is not populated with a valid variable from the dataset referenced in RDOMAIN.","Value for IDVAR in CO does not represent a variable present in the dataset referenced in RDOMAIN.",TRUE,"narrative","core-is-better"
"CORE-001034","CG0562","TIG0648","","Record Data","Raise an error when REPNUM is in the dataset and there are multiple records for a subject for a test within the timeframe identified by the timing var","--REPNUM is null or is not unique per subject per test per timing variables.",TRUE,"narrative","core-is-better"
"CORE-001043","","","FB0501","Record Data","Age should be provided for all subjects, except where not collected for screen failures.","Age is missing for a non-screen failure subject.",TRUE,NA,"core-only"
"CORE-001064","","","FB2305","Record Data","All subjects that have no record in the Exposure domain who are participating in a study that includes an interventional product should not be assigne","Subject has a no record in EX but is assigned to a treatment while participating in an interventional study",TRUE,NA,"core-only"
"CORE-001078","","","FB0609","Record Data","When Death flag (DTHFL) in the DM dataset is populated as 'Y' then a record should be present in the AE dataset where AEOUT = 'FATAL' and AESDTH = 'Y'","DTHFL in DM dataset is ""Y"" but a record is missing in AE dataset where AESDTH = ""Y"" and AEOUT = ""FATAL"".",TRUE,NA,"core-only"
"CORE-001079","CG0013; CG0351","","","Variable Metadata Check","Raise an error when a variable is not an allowed variable for an Observation Class","Variables not listed in the Model List of Allowed Variables for Observation Class should be in SUPPQUAL.",TRUE,"narrative","core-is-better"
"CORE-001080","CG0288","","","Record Data","Raise an error when TSVCDREF ='CDISC' and TSVALCD is not a valid code in the version identified in TSVCDVER.","TSVALCD is not a valid code in the CDISC CT version identified in TSVCDVER.",TRUE,"narrative","core-is-better"
"CORE-001081","CG0010","","","Define Item Metadata Check against Library Metadata","Raise an error when the metadata attribute of variable role does not match the IG role for domain in IG, or model role (for custom domains)","Variable role specified in the define-xml does not match the variable role in the IG (for domains) or in the model (for ",TRUE,"narrative","core-is-better"
"CORE-001082","CG0012","","","Variable Metadata Check against Library Metadata","Raise an error when the variable type does not match IG Type (for domains in IG) or Model Type (custom domains)","Variable data type specified in the dataset does not match the variable data type in the IG or the Model.",TRUE,"narrative","core-is-better"
