"rule_id","authority","standard","ig_version","severity","message","pattern","check_tree_preview","status","converted_at","p21_primitive","notes"
"10","CDISC","ADaM-IG","1.0,1.1,1.2,1.3","Medium","A variable with a suffix of FL is equal to Y and a variable with the same root and a suffix of FN is not equal to 1",NA,NA,"narrative",NA,NA,NA
"11","CDISC","ADaM-IG","1.0,1.1,1.2,1.3","Medium","A variable with a suffix of FL is equal to N and a variable with the same root and a suffix of FN is not equal to 0",NA,NA,"narrative",NA,NA,NA
"12","CDISC","ADaM-IG","1.0,1.1,1.2,1.3","Medium","A variable with a suffix of FL is equal to null and a variable with the same root and a suffix of FN is not equal to null",NA,NA,"narrative",NA,NA,NA
"121","CDISC","ADaM-IG","1.0,1.1,1.2,1.3","Medium","The value of a variable with a suffix of SDT is greater than the value of a variable with the same root and a suffix of EDT, considering only rows on which both variables are populated",NA,NA,"narrative",NA,NA,NA
"122","CDISC","ADaM-IG","1.0,1.1,1.2,1.3","Medium","The value of a variable with a suffix of SDTM is greater than the value of a variable with the same root and a suffix of EDTM, considering only rows on which both variables are populated",NA,NA,"narrative",NA,NA,NA
"127","CDISC","ADaM-IG","1.0,1.1,1.2,1.3","Medium","Within a given value of PARAMCD for a subject, BASE is populated and there is not at least one record with ABLFL equal to Y",NA,NA,"narrative",NA,NA,NA
"128","CDISC","ADaM-IG","1.0,1.1,1.2,1.3","Medium","Within a given value of PARAMCD for a subject, BASEC is populated and there is not at least one record with ABLFL equal to Y",NA,NA,"narrative",NA,NA,NA
"131","CDISC","ADaM-IG","1.0,1.2","Medium","Within a given value of PARAMCD, BASETYPE is populated for at least one record and is not populated for at least one record",NA,NA,"narrative",NA,NA,NA
"132","CDISC","ADaM-IG","1.0,1.1,1.2,1.3","Medium","R2BASE is not equal to AVAL divided by BASE",NA,NA,"narrative",NA,NA,NA
"133","CDISC","ADaM-IG","1.0,1.1,1.2,1.3","Medium","R2AyLO is not equal to AVAL divided by AyLO",NA,NA,"narrative",NA,NA,NA
"134","CDISC","ADaM-IG","1.0,1.1,1.2,1.3","Medium","R2AyHI is not equal to AVAL divided by AyHI",NA,NA,"narrative",NA,NA,NA
"137","CDISC","ADaM-IG","1.0,1.1,1.2,1.3","Medium","CRITyFL is populated and CRITy is not populated",NA,NA,"narrative",NA,NA,NA
"14","CDISC","ADaM-IG","1.0,1.1,1.2,1.3","Medium","A variable name does not start with a letter (A-Z)",NA,NA,"narrative",NA,NA,NA
"148","CDISC","ADaM-IG","1.0","Medium","PARAMN is not an integer",NA,NA,"narrative",NA,NA,NA
"15","CDISC","ADaM-IG","1.0,1.1,1.2,1.3","Medium","A variable name contains a character other than letters (A-Z), underscores (_), or numerals (0-9)",NA,NA,"narrative",NA,NA,NA
"151","CDISC","ADaM-IG","1.0,1.1,1.2,1.3","Medium","Within a given value of PARAMCD, there is more than one value of CRITy",NA,NA,"narrative",NA,NA,NA
"152","CDISC","ADaM-IG","1.0,1.1,1.2","Medium","BASETYPE is present, BASE is populated, and BASE is not equal to AVAL where ABLFL is equal to Y for a given value of PARAMCD and BASETYPE for a subject",NA,NA,"narrative",NA,NA,NA
"154","CDISC","ADaM-IG","1.0,1.1,1.2,1.3","Medium","Within a given PARAMCD and BASETYPE for a subject, more than one record has ABLFL equal to Y",NA,NA,"narrative",NA,NA,NA
"155","CDISC","ADaM-IG","1.0,1.1,1.2,1.3","Medium","Within a given PARAMCD for a subject, more than one record has ABLFL equal to Y and BASETYPE is not present",NA,NA,"narrative",NA,NA,NA
"156","CDISC","ADaM-IG","1.0","Medium","A variable with a prefix of CRIT, a suffix of FL and containing a one-digit number (CRITyFL) is present and a variable with the same root without a suffix of FL (CRITy) is not present",NA,NA,"narrative",NA,NA,NA
"157","CDISC","ADaM-IG","1.0,1.1,1.2,1.3","Medium","A variable with a prefix of CRIT and a suffix of a one-digit number (CRITy) is present and a variable with the same root with a suffix of FL (CRITyFL) is not present",NA,NA,"narrative",NA,NA,NA
"160","CDISC","ADaM-IG","1.0,1.1","Medium","AWU is present and both AWLO and AWHI are not present",NA,NA,"narrative",NA,NA,NA
"165","CDISC","ADaM-IG","1.0,1.1,1.2","Medium","BASETYPE is present, BTOXGR is populated, and BTOXGR is not equal to ATOXGR where ABLFL is equal to Y for a given value of PARAMCD and BASETYPE",NA,NA,"narrative",NA,NA,NA
"168","CDISC","ADaM-IG","1.0,1.1,1.2","Medium","BASETYPE is present, BNRIND is populated, and BNRIND is not equal to ANRIND where ABLFL is equal to Y for a given value of PARAMCD and BASETYPE",NA,NA,"narrative",NA,NA,NA
"169","CDISC","ADaM-IG","1.0,1.1,1.2,1.3","Medium","The value of CNSR is not a positive integer or 0",NA,NA,"narrative",NA,NA,NA
"176","CDISC","ADaM-IG","1.0,1.1","Medium","ABLFL is not equal to Y or null",NA,NA,"narrative",NA,NA,NA
"178","CDISC","ADaM-IG","1.0,1.1","Medium","ANLzzFL is not equal to Y or null where zz is a zero-padded two-digit integer [01-99]",NA,NA,"narrative",NA,NA,NA
"18","CDISC","ADaM-IG","1.0","Medium","Labels for ADaM variables do not match the standard labels for ADaM variables listed in the implementation guide that cannot be modified (with the exception of 1) variables whose names contain indexes “y”, ""xx"", or “zz”; and (2) variable labels with asterisks (*) and ellipses (...) indicated for sponsor appropriate text)",NA,NA,"narrative",NA,NA,NA
"180","CDISC","ADaM-IG","1.0","Medium","SRCDOM has a value that is not an SDTM domain name or null",NA,NA,"narrative",NA,NA,NA
"181","CDISC","ADaM-IG","1.0,1.1,1.2,1.3","Medium","BASETYPE is not present, BASE is populated, and BASE is not equal to AVAL where ABLFL is equal to Y for a given value of PARAMCD for a subject",NA,NA,"narrative",NA,NA,NA
"182","CDISC","ADaM-IG","1.0,1.1,1.2,1.3","Medium","BASETYPE is not present, BTOXGR is populated, and BTOXGR is not equal to ATOXGR where ABLFL is equal to Y for a given value of PARAMCD for a subject",NA,NA,"narrative",NA,NA,NA
"183","CDISC","ADaM-IG","1.0,1.1,1.2,1.3","Medium","BASETYPE is not present, BNRIND is populated, and BNRIND is not equal to ANRIND where ABLFL is equal to Y for a given value of PARAMCD for a subject",NA,NA,"narrative",NA,NA,NA
"19","CDISC","ADaM-IG","1.0,1.1,1.2,1.3","Medium","COMPLFL is present and has a value that is not Y or N","value-flag-yn","all: - operator: non_empty name: %var% - operator: is_not_contained_by name: %var% value: - Y - N","predicate","2026-04-21T21:32:39Z",NA,NA
"198","CDISC","ADaM-IG","1.0,1.1,1.2,1.3","Medium","AVAL is not present and AVALC is not present",NA,NA,"narrative",NA,NA,NA
"199","CDISC","ADaM-IG","1.0,1.1,1.2,1.3","Medium","A variable is present in ADaM with the same name as a variable present in SDTM but the variables do not have identical data types",NA,NA,"narrative",NA,NA,NA
"2","CDISC","ADaM-IG","1.0,1.1,1.2,1.3","Medium","A variable is present in ADaM with the same name as a variable present in SDTM but the variables do not have identical labels",NA,NA,"narrative",NA,NA,NA
"20","CDISC","ADaM-IG","1.0,1.1,1.2,1.3","Medium","FASFL is present and has a value that is not Y or N","value-flag-yn","all: - operator: non_empty name: %var% - operator: is_not_contained_by name: %var% value: - Y - N","predicate","2026-04-21T21:32:39Z",NA,NA
"200","CDISC","ADaM-IG","1.0,1.1,1.2,1.3","Medium","A variable is present in ADaM with the same name as a variable defined in the ADaM IG but the variables do not have identical data types",NA,NA,"narrative",NA,NA,NA
"204","CDISC","ADaM-IG","1.0,1.1,1.2,1.3","Medium","The value of ADSL.USUBJID is equal to the value of DM.USUBJID and ADSL.AGE is not equal to DM.AGE",NA,NA,"narrative",NA,NA,NA
"205","CDISC","ADaM-IG","1.0,1.1,1.2,1.3","Medium","The value of ADSL.USUBJID is equal to the value of DM.USUBJID and ADSL.AGEU is not equal to DM.AGEU",NA,NA,"narrative",NA,NA,NA
"206","CDISC","ADaM-IG","1.0,1.1,1.2,1.3","Medium","The value of ADSL.USUBJID is equal to the value of DM.USUBJID and ADSL.SEX is not equal to DM.SEX",NA,NA,"narrative",NA,NA,NA
"207","CDISC","ADaM-IG","1.0,1.1,1.2,1.3","Medium","The value of ADSL.USUBJID is equal to the value of DM.USUBJID and ADSL.RACE is not equal to DM.RACE",NA,NA,"narrative",NA,NA,NA
"208","CDISC","ADaM-IG","1.0,1.1,1.2,1.3","Medium","The value of ADSL.USUBJID is equal to the value of DM.USUBJID and ADSL.SUBJID is not equal to DM.SUBJID",NA,NA,"narrative",NA,NA,NA
"209","CDISC","ADaM-IG","1.0,1.1,1.2,1.3","Medium","The value of ADSL.USUBJID is equal to the value of DM.USUBJID and ADSL.SITEID is not equal to DM.SITEID",NA,NA,"narrative",NA,NA,NA
"21","CDISC","ADaM-IG","1.0,1.1,1.2,1.3","Medium","ITTFL is present and has a value that is not Y or N","value-flag-yn","all: - operator: non_empty name: %var% - operator: is_not_contained_by name: %var% value: - Y - N","predicate","2026-04-21T21:32:39Z",NA,NA
"210","CDISC","ADaM-IG","1.0,1.1,1.2,1.3","Medium","The value of ADSL.USUBJID is equal to the value of DM.USUBJID and ADSL.ARM is not equal to DM.ARM",NA,NA,"narrative",NA,NA,NA
"211","CDISC","ADaM-IG","1.0,1.1,1.2,1.3","Medium","ABLFN is not equal to 1 or null",NA,NA,"narrative",NA,NA,NA
"212","CDISC","ADaM-IG","1.0,1.1,1.2,1.3","Medium","ANLzzFN is not equal to 1 or null where zz is a zero-padded two-digit integer [01-99]",NA,NA,"narrative",NA,NA,NA
"22","CDISC","ADaM-IG","1.0,1.1,1.2,1.3","Medium","PPROTFL is present and has a value that is not Y or N","value-flag-yn","all: - operator: non_empty name: %var% - operator: is_not_contained_by name: %var% value: - Y - N","predicate","2026-04-21T21:32:39Z",NA,NA
"221","CDISC","ADaM-IG","1.0","Medium","Within a given value of PARAMCD, there is more than one value of AVALCATy for a given value of AVAL",NA,NA,"narrative",NA,NA,NA
"222","CDISC","ADaM-IG","1.0","Medium","Within a given value of PARAMCD, there is more than one value of BASECATy for a given value of BASE and y",NA,NA,"narrative",NA,NA,NA
"224","CDISC","ADaM-IG","1.0","Medium","Within a given value of PARAMCD, there is more than one value of CHGCATy for a given value of CHG and y",NA,NA,"narrative",NA,NA,NA
"226","CDISC","ADaM-IG","1.0","Medium","Within a given value of PARAMCD, there is more than one value of PCHGCATy for a given value of PCHG and y",NA,NA,"narrative",NA,NA,NA
"23","CDISC","ADaM-IG","1.0,1.1,1.2,1.3","Medium","SAFFL is present and has a value that is not Y or N","value-flag-yn","all: - operator: non_empty name: %var% - operator: is_not_contained_by name: %var% value: - Y - N","predicate","2026-04-21T21:32:39Z",NA,NA
"231","CDISC","ADaM-IG","1.0","Medium","Within a given value of TRTxxP, there is more than one value of TRxxPGy, where xx is an integer [01-99, zero-padded] and y is a single-digit integer [1-9]",NA,NA,"narrative",NA,NA,NA
"232","CDISC","ADaM-IG","1.0","Medium","There is more than one value of TRxxPGy for a given value of TRxxPGyN, where xx is an integer [01-99, zero-padded] and y is a single-digit integer [1-9]",NA,NA,"narrative",NA,NA,NA
"233","CDISC","ADaM-IG","1.0","Medium","There is more than one value of TRxxPGyN for a given value of TRxxPGy, where xx is an integer [01-99, zero-padded] and y is a single-digit integer [1-9]",NA,NA,"narrative",NA,NA,NA
"234","CDISC","ADaM-IG","1.0","Medium","Within a given value of TRTxxA, there is more than one value of TRxxAGy, where xx is an integer [01-99, zero-padded] and y is a single-digit integer [1-9]",NA,NA,"narrative",NA,NA,NA
"235","CDISC","ADaM-IG","1.0","Medium","There is more than one value of TRxxAGy for a given value of TRxxAGyN, where xx is an integer [01-99, zero-padded] and y is a single-digit integer [1-9]",NA,NA,"narrative",NA,NA,NA
"236","CDISC","ADaM-IG","1.0","Medium","There is more than one value of TRxxAGyN for a given value of TRxxAGy, where xx is an integer [01-99, zero-padded] and y is a single-digit integer [1-9]",NA,NA,"narrative",NA,NA,NA
"237","CDISC","ADaM-IG","1.0","Medium","There is more than one value of TRTPGy for a given value of TRTPGyN, where y is a single-digit integer [1-9]",NA,NA,"narrative",NA,NA,NA
"238","CDISC","ADaM-IG","1.0","Medium","There is more than one value of TRTPGyN for a given value of TRTPGy, where y is a single-digit integer [1-9]",NA,NA,"narrative",NA,NA,NA
"239","CDISC","ADaM-IG","1.0","Medium","TRTPGy is present and TRTA is present but TRTAGy is not present, where y is a single-digit integer [1-9]",NA,NA,"narrative",NA,NA,NA
"24","CDISC","ADaM-IG","1.0,1.1,1.2,1.3","Medium","RANDFL is present and has a value that is not Y or N","value-flag-yn","all: - operator: non_empty name: %var% - operator: is_not_contained_by name: %var% value: - Y - N","predicate","2026-04-21T21:32:39Z",NA,NA
"240","CDISC","ADaM-IG","1.0","Medium","There is more than one value of TRTAGy for a given value of TRTAGyN, where y is a single-digit integer [1-9]",NA,NA,"narrative",NA,NA,NA
"241","CDISC","ADaM-IG","1.0","Medium","There is more than one value of TRTAGyN for a given value of TRTAGy, where y is a single-digit integer [1-9]",NA,NA,"narrative",NA,NA,NA
"242","CDISC","ADaM-IG","1.0","Medium","There is more than one value of TRTxxAN for a given value of TRTxxA, where xx is an integer [01-99, zero-padded]",NA,NA,"narrative",NA,NA,NA
"243","CDISC","ADaM-IG","1.0","Medium","There is more than one value of TRTxxA for a given value of TRTxxAN, where xx is an integer [01-99, zero-padded]",NA,NA,"narrative",NA,NA,NA
"25","CDISC","ADaM-IG","1.0,1.1,1.2,1.3","Medium","ENRLFL is present and has a value that is not Y or N","value-flag-yn","all: - operator: non_empty name: %var% - operator: is_not_contained_by name: %var% value: - Y - N","predicate","2026-04-21T21:32:39Z",NA,NA
"252","CDISC","ADaM-IG","1.0,1.1,1.2,1.3","Medium","AVAL is present or AVALC is present",NA,NA,"narrative",NA,NA,NA
"254","CDISC","ADaM-IG","1.0,1.1,1.2,1.3","Medium","PARAM is present",NA,NA,"narrative",NA,NA,NA
"256","CDISC","ADaM-IG","1.0,1.1,1.2,1.3","Medium","The values of USUBJID are not present in ADSL",NA,NA,"narrative",NA,NA,NA
"26","CDISC","ADaM-IG","1.0,1.1,1.2,1.3","Medium","COMPLFN is present and has a value that is not 1 or 0",NA,NA,"narrative",NA,NA,NA
"269","CDISC","ADaM-IG","1.0,1.1,1.2,1.3","Medium","TRTEMFL is not equal to Y or null",NA,NA,"narrative",NA,NA,NA
"27","CDISC","ADaM-IG","1.0,1.1,1.2,1.3","Medium","FASFN is present and has a value that is not 1 or 0",NA,NA,"narrative",NA,NA,NA
"270","CDISC","ADaM-IG","1.0,1.1,1.2,1.3","Medium","PREFL is not equal to Y or null",NA,NA,"narrative",NA,NA,NA
"271","CDISC","ADaM-IG","1.0,1.1,1.2,1.3","Medium","FUPFL is not equal to Y or null",NA,NA,"narrative",NA,NA,NA
"272","CDISC","ADaM-IG","1.0,1.1,1.2,1.3","Medium","A variable with a prefix of AOCC and a suffix of FL is not equal to Y or null",NA,NA,"narrative",NA,NA,NA
"279","CDISC","ADaM-IG","1.0,1.1,1.2,1.3","Medium","AESEVN is not equal to 1, 2, 3, or null",NA,NA,"narrative",NA,NA,NA
"28","CDISC","ADaM-IG","1.0,1.1,1.2,1.3","Medium","ITTFN is present and has a value that is not 1 or 0",NA,NA,"narrative",NA,NA,NA
"282","CDISC","ADaM-IG","1.0,1.1,1.2,1.3","Medium","ASEVN is not equal to 1, 2, 3, or null",NA,NA,"narrative",NA,NA,NA
"29","CDISC","ADaM-IG","1.0,1.1,1.2,1.3","Medium","PPROTFN is present and has a value that is not 1 or 0",NA,NA,"narrative",NA,NA,NA
"30","CDISC","ADaM-IG","1.0,1.1,1.2,1.3","Medium","SAFFN is present and has a value that is not 1 or 0",NA,NA,"narrative",NA,NA,NA
"304","CDISC","ADaM-IG","1.0,1.1,1.2,1.3","Medium","SMQzzNAM is populated and SMQzzCD is not populated",NA,NA,"narrative",NA,NA,NA
"305","CDISC","ADaM-IG","1.0,1.1,1.2,1.3","Medium","SMQzzNAM is populated and SMQzzSC is not populated",NA,NA,"narrative",NA,NA,NA
"306","CDISC","ADaM-IG","1.0,1.1,1.2,1.3","Medium","SMQzzCD is populated and SMQzzNAM is not populated",NA,NA,"narrative",NA,NA,NA
"307","CDISC","ADaM-IG","1.0,1.1,1.2,1.3","Medium","SMQzzCD is populated and SMQzzSC is not populated",NA,NA,"narrative",NA,NA,NA
"308","CDISC","ADaM-IG","1.0,1.1,1.2,1.3","Medium","SMQzzSC is populated and SMQzzNAM is not populated",NA,NA,"narrative",NA,NA,NA
"309","CDISC","ADaM-IG","1.0,1.1,1.2,1.3","Medium","SMQzzSC is populated and SMQzzCD is not populated",NA,NA,"narrative",NA,NA,NA
"31","CDISC","ADaM-IG","1.0,1.1,1.2,1.3","Medium","RANDFN is present and has a value that is not 1 or 0",NA,NA,"narrative",NA,NA,NA
"312","CDISC","ADaM-IG","1.0,1.1,1.2,1.3","Medium","SMQzzSC is not equal to BROAD or NARROW, where zz is a zero-padded two-digit integer [01-99]",NA,NA,"narrative",NA,NA,NA
"313","CDISC","ADaM-IG","1.0,1.1,1.2,1.3","Medium","SMQzzSCN is not equal to 1 or 2, where zz is a zero-padded two-digit integer [01-99]",NA,NA,"narrative",NA,NA,NA
"32","CDISC","ADaM-IG","1.0,1.1,1.2,1.3","Medium","ENRLFN is present and has a value that is not 1 or 0",NA,NA,"narrative",NA,NA,NA
"321","CDISC","ADaM-IG","1.0,1.1,1.2,1.3","Medium","A dataset label is ""Subject-Level Analysis Dataset"" and the dataset is not named ADSL",NA,NA,"narrative",NA,NA,NA
"322","CDISC","ADaM-IG","1.1,1.2,1.3","Medium","Within a given value of TRTP, there is more than one value of TRTPGy, where y is an integer [1-99, not zero-padded]",NA,NA,"narrative",NA,NA,NA
"323","CDISC","ADaM-IG","1.1,1.2,1.3","Medium","Within a study, there is more than one value of APHASEN for a given value of APHASE, considering only those rows on which both variables are populated",NA,NA,"narrative",NA,NA,NA
"324","CDISC","ADaM-IG","1.1,1.2,1.3","Medium","Within a study, there is more than one value of APHASE for a given value of APHASEN, considering only those rows on which both variables are populated",NA,NA,"narrative",NA,NA,NA
"325","CDISC","ADaM-IG","1.1,1.2,1.3","Medium","Within a value of APERIOD, there is more than one value of ASPER for a given value of ASPERC, considering only those rows on which both variables are populated",NA,NA,"narrative",NA,NA,NA
"326","CDISC","ADaM-IG","1.1,1.2,1.3","Medium","Within a value of APERIOD, there is more than one value of ASPERC for a given value of ASPER, considering only those rows on which both variables are populated",NA,NA,"narrative",NA,NA,NA
"327","CDISC","ADaM-IG","1.1,1.2,1.3","Medium","Within a parameter, there is more than one value of AVALCATy for a given value of AVALCAyN, considering only those rows on which both variables are populated",NA,NA,"narrative",NA,NA,NA
"328","CDISC","ADaM-IG","1.1,1.2,1.3","Medium","Within a parameter, there is more than one value of AVALCAyN for a given value of AVALCATy, considering only those rows on which both variables are populated",NA,NA,"narrative",NA,NA,NA
"329","CDISC","ADaM-IG","1.1,1.2,1.3","Medium","Within a parameter, there is more than one value of BASECATy for a given value of BASECAyN, considering only those rows on which both variables are populated",NA,NA,"narrative",NA,NA,NA
"33","CDISC","ADaM-IG","1.0,1.1","Medium","A variable with a suffix of RFL has a value that is not Y or null",NA,NA,"narrative",NA,NA,NA
"330","CDISC","ADaM-IG","1.1,1.2,1.3","Medium","Within a parameter, there is more than one value of BASECAyN for a given value of BASECATy, considering only those rows on which both variables are populated",NA,NA,"narrative",NA,NA,NA
"331","CDISC","ADaM-IG","1.1,1.2,1.3","Medium","Within a parameter, there is more than one value of CHGCATy for a given value of CHGCATyN, considering only those rows on which both variables are populated",NA,NA,"narrative",NA,NA,NA
"332","CDISC","ADaM-IG","1.1,1.2,1.3","Medium","Within a parameter, there is more than one value of CHGCATyN for a given value of CHGCATy, considering only those rows on which both variables are populated",NA,NA,"narrative",NA,NA,NA
"333","CDISC","ADaM-IG","1.1,1.2,1.3","Medium","Within a parameter, there is more than one value of PCHGCATy for a given value of PCHGCAyN, considering only those rows on which both variables are populated",NA,NA,"narrative",NA,NA,NA
"334","CDISC","ADaM-IG","1.1,1.2,1.3","Medium","Within a parameter, there is more than one value of PCHGCAyN for a given value of PCHGCATy, considering only those rows on which both variables are populated",NA,NA,"narrative",NA,NA,NA
"335","CDISC","ADaM-IG","1.0,1.1,1.2,1.3","Medium","CRITyFL is present and CRITy is not present",NA,NA,"narrative",NA,NA,NA
"336","CDISC","ADaM-IG","1.0,1.1,1.2,1.3","Medium","CRITy is present and CRITyFL is not present",NA,NA,"narrative",NA,NA,NA
"337","CDISC","ADaM-IG","1.1,1.2,1.3","Medium","MCRITyML is present and MCRITy is not present",NA,NA,"narrative",NA,NA,NA
"338","CDISC","ADaM-IG","1.1,1.2,1.3","Medium","MCRITy is present and MCRITyML is not present",NA,NA,"narrative",NA,NA,NA
"339","CDISC","ADaM-IG","1.1,1.2,1.3","Medium","MCRITyML is populated and MCRITy is not populated",NA,NA,"narrative",NA,NA,NA
"34","CDISC","ADaM-IG","1.0,1.1","Medium","A variable with a suffix of PFL has a value that is not Y or null",NA,NA,"narrative",NA,NA,NA
"340","CDISC","ADaM-IG","1.1,1.2,1.3","Medium","Within a parameter, there is more than one value of MCRITyML for a given value of MCRITyMN, considering only those rows on which both variables are populated",NA,NA,"narrative",NA,NA,NA
"341","CDISC","ADaM-IG","1.1,1.2,1.3","Medium","Within a parameter, there is more than one value of MCRITyMN for a given value of MCRITyML, considering only those rows on which both variables are populated",NA,NA,"narrative",NA,NA,NA
"342","CDISC","ADaM-IG","1.1,1.2,1.3","Medium","Within a parameter, there is more than one value of ANRLO for a given value of ANRLOC",NA,NA,"narrative",NA,NA,NA
"343","CDISC","ADaM-IG","1.1,1.2,1.3","Medium","Within a parameter, there is more than one value of ANRLOC for a given value of ANRLO",NA,NA,"narrative",NA,NA,NA
"344","CDISC","ADaM-IG","1.1,1.2,1.3","Medium","Within a parameter, there is more than one value of ANRHI for a given value of ANRHIC",NA,NA,"narrative",NA,NA,NA
"345","CDISC","ADaM-IG","1.1,1.2,1.3","Medium","Within a parameter, there is more than one value of ANRHIC for a given value of ANRHI",NA,NA,"narrative",NA,NA,NA
"346","CDISC","ADaM-IG","1.1,1.2,1.3","Medium","R2AyLO is present and AyLO is not present",NA,NA,"narrative",NA,NA,NA
"347","CDISC","ADaM-IG","1.1,1.2,1.3","Medium","Within a parameter, there is more than one value of AyLO for a given value of AyLOC",NA,NA,"narrative",NA,NA,NA
"348","CDISC","ADaM-IG","1.1,1.2,1.3","Medium","Within a parameter, there is more than one value of AyLOC for a given value of AyLO",NA,NA,"narrative",NA,NA,NA
"349","CDISC","ADaM-IG","1.1,1.2,1.3","Medium","R2AyHI is present and AyHI is not present",NA,NA,"narrative",NA,NA,NA
"35","CDISC","ADaM-IG","1.0,1.1","Medium","A variable with a suffix of RFN has a value that is not 1 or null",NA,NA,"narrative",NA,NA,NA
"350","CDISC","ADaM-IG","1.1,1.2,1.3","Medium","Within a parameter, there is more than one value of AyHI for a given value of AyHIC",NA,NA,"narrative",NA,NA,NA
"351","CDISC","ADaM-IG","1.1,1.2,1.3","Medium","Within a parameter, there is more than one value of AyHIC for a given value of AyHI",NA,NA,"narrative",NA,NA,NA
"352","CDISC","ADaM-IG","1.1,1.2,1.3","Medium","AyIND is present and AyLO, AyHI, AyLOC, and AyHIC are all not present",NA,NA,"narrative",NA,NA,NA
"353","CDISC","ADaM-IG","1.1,1.2","Medium","BASETYPE is present, ByIND is populated, and ByIND is not equal to AyIND where ABLFL is equal to Y for a given value of PARAMCD and BASETYPE for a subject",NA,NA,"narrative",NA,NA,NA
"354","CDISC","ADaM-IG","1.1,1.2,1.3","Medium","BASETYPE is not present, ByIND is populated, and ByIND is not equal to AyIND where ABLFL is equal to Y for a given value of PARAMCD for a subject",NA,NA,"narrative",NA,NA,NA
"355","CDISC","ADaM-IG","1.1,1.2,1.3","Medium","There is more than one value of REGIONy for a given value of REGIONyN, considering only those rows on which both variables are populated",NA,NA,"narrative",NA,NA,NA
"356","CDISC","ADaM-IG","1.1,1.2,1.3","Medium","There is more than one value of REGIONyN for a given value of REGIONy, considering only those rows on which both variables are populated",NA,NA,"narrative",NA,NA,NA
"36","CDISC","ADaM-IG","1.0,1.1","Medium","A variable with a suffix of PFN has a value that is not 1 or null",NA,NA,"narrative",NA,NA,NA
"361","CDISC","ADaM-IG","1.0,1.1,1.2,1.3","Medium","The value of ASTDT is greater than the value of AENDT, considering only those rows on which both variables are populated",NA,NA,"narrative",NA,NA,NA
"362","CDISC","ADaM-IG","1.0,1.1,1.2,1.3","Medium","The value of ASTDTM is greater than the value of AENDTM, considering only those rows on which both variables are populated",NA,NA,"narrative",NA,NA,NA
"363","CDISC","ADaM-IG","1.0,1.1","Medium","ONTRTFL is not equal to Y or null",NA,NA,"narrative",NA,NA,NA
"364","CDISC","ADaM-IG","1.1,1.2,1.3","Medium","DOSEON or DOSCUMA is present and DOSEU is not present",NA,NA,"narrative",NA,NA,NA
"365","CDISC","ADaM-IG","1.0,1.1,1.2,1.3","Medium","SDTM.EX is present and neither TRTEDT or TRTEDTM are present",NA,NA,"narrative",NA,NA,NA
"366","CDISC","ADaM-IG","1.0,1.1,1.2,1.3","Medium","RANDDT is not present when RANDFL is equal to Y for at least one record",NA,NA,"narrative",NA,NA,NA
"367","CDISC","ADaM-IG","1.1,1.2,1.3","Medium","The value of ADSL.USUBJID is equal to the value of DM.USUBJID and ADSL.ACTARM is not equal to DM.ACTARM",NA,NA,"narrative",NA,NA,NA
"368","CDISC","ADaM-IG","1.0,1.1,1.2,1.3","Medium","TRxxAGy is not present and both TRxxPGy and TRTxxA are present",NA,NA,"narrative",NA,NA,NA
"369","CDISC","ADaM-IG","1.0,1.1,1.2,1.3","Medium","*DTF is populated and neither *DT nor *DTM is populated",NA,NA,"narrative",NA,NA,NA
"37","CDISC","ADaM-IG","1.0","Medium","There is more than one value of a variable which has a suffix of GRyN for a given value of a variable with the same root name and suffix of GRy",NA,NA,"narrative",NA,NA,NA
"370","CDISC","ADaM-IG","1.0,1.1,1.2,1.3","Medium","*TMF is populated and neither *TM nor *DTM is populated",NA,NA,"narrative",NA,NA,NA
"38","CDISC","ADaM-IG","1.0","Medium","There is more than one value of a variable which has a suffix of GRy for a given value of a variable with the same root name and suffix of GRyN",NA,NA,"narrative",NA,NA,NA
"381","CDISC","ADaM-IG","1.2,1.3","Medium","Within a parameter, there is more than one value of BTOXGR for a given value of BTOXGRN, considering only those rows on which both variables are populated",NA,NA,"narrative",NA,NA,NA
"382","CDISC","ADaM-IG","1.2,1.3","Medium","Within a parameter, there is more than one value of BTOXGRN for a given value of BTOXGR, considering only those rows on which both variables are populated",NA,NA,"narrative",NA,NA,NA
"383","CDISC","ADaM-IG","1.2,1.3","Medium","Within a parameter, there is more than one value of BTOXGRL for a given value of BTOXGRLN, considering only those rows on which both variables are populated",NA,NA,"narrative",NA,NA,NA
"384","CDISC","ADaM-IG","1.2,1.3","Medium","Within a parameter, there is more than one value of BTOXGRLN for a given value of BTOXGRL, considering only those rows on which both variables are populated",NA,NA,"narrative",NA,NA,NA
"387","CDISC","ADaM-IG","1.2,1.3","Medium","Within a parameter, there is more than one value of BTOXGRH for a given value of BTOXGRHN, considering only those rows on which both variables are populated",NA,NA,"narrative",NA,NA,NA
"388","CDISC","ADaM-IG","1.2,1.3","Medium","Within a parameter, there is more than one value of BTOXGRHN for a given value of BTOXGRH, considering only those rows on which both variables are populated",NA,NA,"narrative",NA,NA,NA
"39","CDISC","ADaM-IG","1.0,1.1,1.2,1.3","Medium","A variable with a suffix of DTF has a value that is not within Controlled Terminology for DATEFL",NA,NA,"narrative",NA,NA,NA
"395","CDISC","ADaM-IG","1.2,1.3","Medium","Within a parameter, there is more than one value of ATOXGRL for a given value of ATOXGRLN, considering only those rows on which both variables are populated",NA,NA,"narrative",NA,NA,NA
"396","CDISC","ADaM-IG","1.2,1.3","Medium","Within a parameter, there is more than one value of ATOXGRLN for a given value of ATOXGRL, considering only those rows on which both variables are populated",NA,NA,"narrative",NA,NA,NA
"399","CDISC","ADaM-IG","1.2,1.3","Medium","Within a parameter, there is more than one value of ATOXGRH for a given value of ATOXGRHN, considering only those rows on which both variables are populated",NA,NA,"narrative",NA,NA,NA
"40","CDISC","ADaM-IG","1.0,1.1,1.2,1.3","Medium","A variable with a suffix of TMF has a value that is not within Controlled Terminology for TIMEFL",NA,NA,"narrative",NA,NA,NA
"400","CDISC","ADaM-IG","1.2,1.3","Medium","Within a parameter, there is more than one value of ATOXGRHN for a given value of ATOXGRH, considering only those rows on which both variables are populated",NA,NA,"narrative",NA,NA,NA
"401","CDISC","ADaM-IG","1.2,1.3","Medium","AVAL is not populated or ATOXGRL is not populated, and ATOXDSCL is populated",NA,NA,"narrative",NA,NA,NA
"402","CDISC","ADaM-IG","1.2,1.3","Medium","AVAL is not populated or ATOXGRH is not populated, and ATOXDSCH is populated",NA,NA,"narrative",NA,NA,NA
"403","CDISC","ADaM-IG","1.2,1.3","Medium","Within a subject, there is more than one value of ATOXDSCL for a given value of PARAM, considering only those rows on which both variables are populated",NA,NA,"narrative",NA,NA,NA
"405","CDISC","ADaM-IG","1.2,1.3","Medium","Within a subject, there is more than one value of ATOXDSCH for a given value of PARAM, considering only those rows on which both variables are populated",NA,NA,"narrative",NA,NA,NA
"41","CDISC","ADaM-IG","1.0,1.1,1.2,1.3","Medium","A numeric variable with a suffix of DT does not have a date format",NA,NA,"narrative",NA,NA,NA
"413","CDISC","ADaM-IG","1.2,1.3","Medium","There is more than one value of ANLzzFN for a given value of ANLzzFL, considering only those rows on which both variables are populated",NA,NA,"narrative",NA,NA,NA
"414","CDISC","ADaM-IG","1.2,1.3","Medium","There is more than one value of ANLzzFL for a given value of ANLzzFN , considering only those rows on which both variables are populated",NA,NA,"narrative",NA,NA,NA
"42","CDISC","ADaM-IG","1.0,1.1,1.2,1.3","Medium","A numeric variable with a suffix of TM does not have a time format, excluding ARELTM and variables with a suffix of DTM",NA,NA,"narrative",NA,NA,NA
"43","CDISC","ADaM-IG","1.0,1.1,1.2,1.3","Medium","A numeric variable with a suffix of DTM does not have a datetime format",NA,NA,"narrative",NA,NA,NA
"44","CDISC","ADaM-IG","1.0,1.1,1.2,1.3","Medium","A variable with a suffix of TM and a variable with a suffix of DTM with the same root name have different time values",NA,NA,"narrative",NA,NA,NA
"45","CDISC","ADaM-IG","1.0,1.1,1.2,1.3","Medium","A variable with a suffix of DT and a variable with a suffix of DTM with the same root name have different date values",NA,NA,"narrative",NA,NA,NA
"46","CDISC","ADaM-IG","1.0,1.1,1.2,1.3","Medium","A variable with a suffix of DY has a value of zero",NA,NA,"narrative",NA,NA,NA
"472","CDISC","ADaM-IG","1.2,1.3","Medium","There is more than one value of STRATwR for a given value of STRATwRN, considering only those rows on which both variables are populated",NA,NA,"narrative",NA,NA,NA
"473","CDISC","ADaM-IG","1.2,1.3","Medium","There is more than one value of STRATwRN for a given value of STRATwR, considering only those rows on which both variables are populated",NA,NA,"narrative",NA,NA,NA
"480","CDISC","ADaM-IG","1.2,1.3","Medium","There is more than one value of STRATwV for a given value of STRATwVN, considering only those rows on which both variables are populated",NA,NA,"narrative",NA,NA,NA
"481","CDISC","ADaM-IG","1.2,1.3","Medium","There is more than one value of STRATwVN for a given value of STRATwV, considering only those rows on which both variables are populated",NA,NA,"narrative",NA,NA,NA
"492","CDISC","ADaM-IG","1.2,1.3","Medium","SHIFTy is present and all of the following variable pairs (BASECATy, AVALCATy), (BNRIND, ANRIND), (ByIND, AyIND), (BTOXGR, ATOXGR), (BTOXGRL, ATOXGRL), (BTOXGRH, ATOXGRH), (BASE, AVAL) and (BASEC, AVALC) are not present",NA,NA,"narrative",NA,NA,NA
"493","CDISC","ADaM-IG","1.2,1.3","Medium","ANLzzFL is equal to ""N"" where zz is a zero-padded two-digit integer [01-99]",NA,NA,"narrative",NA,NA,NA
"494","CDISC","ADaM-IG","1.2,1.3","Medium","ABLFL is equal to ""N""",NA,NA,"narrative",NA,NA,NA
"496","CDISC","ADaM-IG","1.0,1.1,1.2,1.3","Medium","A dataset name does not start with ""AD"" when dataset class is not missing",NA,NA,"narrative",NA,NA,NA
"497","CDISC","ADaM-IG","1.1,1.2,1.3","Medium","A dataset name starts with ""AD"" when the dataset class is missing",NA,NA,"narrative",NA,NA,NA
"498","CDISC","ADaM-IG","1.2,1.3","Medium","For every unique combination of a w value of ASPER and xx value of APERIOD in BDS or OCCDS datasets, there is not a variable PxxSw",NA,NA,"narrative",NA,NA,NA
"5","CDISC","ADaM-IG","1.0,1.1,1.2,1.3","Medium","A variable with a suffix of FL has a value that is not Y, N or null",NA,NA,"narrative",NA,NA,NA
"521","CDISC","ADaM-IG","1.1,1.2,1.3","Medium","A variable which has a suffix of GRyN is present and a variable with the same root name and suffix of GRy is not present",NA,NA,"narrative",NA,NA,NA
"526","CDISC","ADaM-IG","1.1,1.2,1.3","Medium","ANLzzFN is present and ANLzzFL is not present",NA,NA,"narrative",NA,NA,NA
"53","CDISC","ADaM-IG","1.0,1.1,1.2,1.3","Medium","The value of USUBJID is not present in SDTM.DM",NA,NA,"narrative",NA,NA,NA
"531","CDISC","ADaM-IG","1.1,1.2,1.3","Medium","SEVGRyN is present and SEVGRy is not present",NA,NA,"narrative",NA,NA,NA
"534","CDISC","ADaM-IG","1.1,1.2,1.3","Medium","RELGRyN is present and RELGRy is not present",NA,NA,"narrative",NA,NA,NA
"537","CDISC","ADaM-IG","1.1,1.2,1.3","Medium","TOXGGRyN is present and TOXGGRy is not present",NA,NA,"narrative",NA,NA,NA
"538","CDISC","ADaM-IG","1.1,1.2,1.3","Medium","SMQzzSCN is present and SMQzzSC is not present",NA,NA,"narrative",NA,NA,NA
"543","CDISC","ADaM-IG","1.1,1.2,1.3","Medium","AVALCAyN is present and AVALCATy is not present",NA,NA,"narrative",NA,NA,NA
"544","CDISC","ADaM-IG","1.1,1.2,1.3","Medium","BASECAyN is present and BASECATy is not present",NA,NA,"narrative",NA,NA,NA
"545","CDISC","ADaM-IG","1.1,1.2,1.3","Medium","CHGCATyN is present and CHGCATy is not present",NA,NA,"narrative",NA,NA,NA
"546","CDISC","ADaM-IG","1.1,1.2,1.3","Medium","PCHGCAyN is present and PCHGCATy is not present",NA,NA,"narrative",NA,NA,NA
"547","CDISC","ADaM-IG","1.1,1.2,1.3","Medium","PARCATyN is present and PARCATy is not present",NA,NA,"narrative",NA,NA,NA
"552","CDISC","ADaM-IG","1.1,1.2,1.3","Medium","MCRITyMN is present and MCRITyML is not present",NA,NA,"narrative",NA,NA,NA
"553","CDISC","ADaM-IG","1.1,1.2,1.3","Medium","REGIONyN is present and REGIONy is not present",NA,NA,"narrative",NA,NA,NA
"554","CDISC","ADaM-IG","1.1,1.2,1.3","Medium","SHIFTyN is present and SHIFTy is not present",NA,NA,"narrative",NA,NA,NA
"557","CDISC","ADaM-IG","1.1,1.2,1.3","Medium","TSEQPGyN is present and TSEQPGy is not present",NA,NA,"narrative",NA,NA,NA
"558","CDISC","ADaM-IG","1.1,1.2,1.3","Medium","TSEQAGyN is present and TSEQAGy is not present",NA,NA,"narrative",NA,NA,NA
"561","CDISC","ADaM-IG","1.2,1.3","Medium","STRATwRN is present and STRATwR is not present for the same value of ""w""",NA,NA,"narrative",NA,NA,NA
"563","CDISC","ADaM-IG","1.2,1.3","Medium","STRATwVN is present and STRATwV is not present for the same value of ""w""",NA,NA,"narrative",NA,NA,NA
"565","CDISC","ADaM-IG","1.2,1.3","Medium","BCHGCAyN is present and BCHGCATy is not present",NA,NA,"narrative",NA,NA,NA
"566","CDISC","ADaM-IG","1.2,1.3","Medium","PBCHGCyN is present and PBCHGCAy is not present",NA,NA,"narrative",NA,NA,NA
"567","CDISC","ADaM-IG","1.1,1.2,1.3","Medium","CRITyFN is present and CRITyFL is not present",NA,NA,"narrative",NA,NA,NA
"570","CDISC","ADaM-IG","1.2,1.3","Medium","PxxSw is present and TRTxxP is not present for the same ""xx"" value",NA,NA,"narrative",NA,NA,NA
"571","CDISC","ADaM-IG","1.2,1.3","Medium","PxxSwSDT is present and TRTxxP is not present for the same ""xx"" value",NA,NA,"narrative",NA,NA,NA
"572","CDISC","ADaM-IG","1.2,1.3","Medium","PxxSwSDM is present and TRTxxP is not present for the same ""xx"" value",NA,NA,"narrative",NA,NA,NA
"573","CDISC","ADaM-IG","1.2,1.3","Medium","PxxSwSTM is present and TRTxxP is not present for the same ""xx"" value",NA,NA,"narrative",NA,NA,NA
"574","CDISC","ADaM-IG","1.2,1.3","Medium","PxxSwSDF is present and TRTxxP is not present for the same ""xx"" value",NA,NA,"narrative",NA,NA,NA
"575","CDISC","ADaM-IG","1.2,1.3","Medium","PxxSwSTF is present and TRTxxP is not present for the same ""xx"" value",NA,NA,"narrative",NA,NA,NA
"576","CDISC","ADaM-IG","1.2,1.3","Medium","PxxSwEDT is present and TRTxxP is not present for the same ""xx"" value",NA,NA,"narrative",NA,NA,NA
"577","CDISC","ADaM-IG","1.2,1.3","Medium","PxxSwEDM is present and TRTxxP is not present for the same ""xx"" value",NA,NA,"narrative",NA,NA,NA
"578","CDISC","ADaM-IG","1.2,1.3","Medium","PxxSwETM is present and TRTxxP is not present for the same ""xx"" value",NA,NA,"narrative",NA,NA,NA
"579","CDISC","ADaM-IG","1.2,1.3","Medium","PxxSwEDF is present and TRTxxP is not present for the same ""xx"" value",NA,NA,"narrative",NA,NA,NA
"58","CDISC","ADaM-IG","1.0,1.1,1.2,1.3","Medium","A variable with a suffix of DT is not a numeric variable",NA,NA,"narrative",NA,NA,NA
"580","CDISC","ADaM-IG","1.2,1.3","Medium","PxxSwETF is present and TRTxxP is not present for the same ""xx"" value",NA,NA,"narrative",NA,NA,NA
"583","CDISC","ADaM-IG","1.2,1.3","Medium","Within a given value of PARAMCD, there is more than one value of BCHGCATy for a given value of BCHG and y, where y is an integer [1-99, not zero-padded]",NA,NA,"narrative",NA,NA,NA
"584","CDISC","ADaM-IG","1.2,1.3","Medium","Within a parameter, there is more than one value of BCHGCATy for a given value of BCHGCAyN, considering only those rows on which both variables are populated",NA,NA,"narrative",NA,NA,NA
"585","CDISC","ADaM-IG","1.2,1.3","Medium","Within a parameter, there is more than one value of BCHGCAyN for a given value of BCHGCATy, considering only those rows on which both variables are populated",NA,NA,"narrative",NA,NA,NA
"587","CDISC","ADaM-IG","1.2,1.3","Medium","Within a given value of PARAMCD, there is more than one value of PBCHGCAy for a given value of PBCHG and y, where y is a single-digit integer [1-9]",NA,NA,"narrative",NA,NA,NA
"588","CDISC","ADaM-IG","1.2,1.3","Medium","Within a parameter, there is more than one value of PBCHGCAy for a given value of PBCHGCyN, considering only those rows on which both variables are populated",NA,NA,"narrative",NA,NA,NA
"589","CDISC","ADaM-IG","1.2,1.3","Medium","Within a parameter, there is more than one value of PBCHGCyN for a given value of PBCHGCAy, considering only those rows on which both variables are populated",NA,NA,"narrative",NA,NA,NA
"59","CDISC","ADaM-IG","1.0","Medium","A variable with a suffix of TM is not a numeric variable",NA,NA,"narrative",NA,NA,NA
"592","CDISC","ADaM-IG","1.2,1.3","Medium","On a given record, the value of APERSDT is not equal to the value of variable APxxSDT where xx equals the value of APERIOD",NA,NA,"narrative",NA,NA,NA
"593","CDISC","ADaM-IG","1.2,1.3","Medium","On a given record, the value of APERSTM is not equal to the value of variable APxxSTM where xx equals the value of APERIOD",NA,NA,"narrative",NA,NA,NA
"594","CDISC","ADaM-IG","1.2,1.3","Medium","On a given record, the value of APERSDTM is not equal to the value of variable APxxSDTM where xx equals the value of APERIOD",NA,NA,"narrative",NA,NA,NA
"595","CDISC","ADaM-IG","1.2,1.3","Medium","On a given record, the value of APEREDT is not equal to the value of variable APxxEDT where xx equals the value of APERIOD",NA,NA,"narrative",NA,NA,NA
"596","CDISC","ADaM-IG","1.2,1.3","Medium","On a given record, the value of APERETM is not equal to the value of variable APxxETM where xx equals the value of APERIOD",NA,NA,"narrative",NA,NA,NA
"597","CDISC","ADaM-IG","1.2,1.3","Medium","On a given record, the value of APEREDTM is not equal to the value of variable APxxEDTM where xx equals the value of APERIOD",NA,NA,"narrative",NA,NA,NA
"598","CDISC","ADaM-IG","1.2,1.3","Medium","On a given record, the value of ASPRSDT is not equal to the value of variable PxxSwSDT where xx equals the value of APERIOD and w equals the value of ASPER",NA,NA,"narrative",NA,NA,NA
"599","CDISC","ADaM-IG","1.2,1.3","Medium","On a given record, the value of ASPRSTM is not equal to the value of variable PxxSwSTM where xx equals the value of APERIOD and w equals the value of ASPER",NA,NA,"narrative",NA,NA,NA
"6","CDISC","ADaM-IG","1.0,1.1,1.2,1.3","Medium","A variable with a suffix of FL is present and a variable with the same root and a suffix of FN has a value that is not  0, 1 or null",NA,NA,"narrative",NA,NA,NA
"60","CDISC","ADaM-IG","1.0,1.1,1.2,1.3","Medium","A variable with a suffix of DTM is not a numeric variable",NA,NA,"narrative",NA,NA,NA
"601","CDISC","ADaM-IG","1.2,1.3","Medium","On a given record, the value of ASPREDT is not equal to the value of variable PxxSwEDT where xx equals the value of APERIOD and w equals the value of ASPER",NA,NA,"narrative",NA,NA,NA
"602","CDISC","ADaM-IG","1.2,1.3","Medium","On a given record, the value of ASPRETM is not equal to the value of variable PxxSwETM where xx equals the value of APERIOD and w equals the value of ASPER",NA,NA,"narrative",NA,NA,NA
"604","CDISC","ADaM-IG","1.2,1.3","Medium","On a given record, APHASEN is not present and the value of PHSDT is not equal to the value of at least one PHwSDT variable",NA,NA,"narrative",NA,NA,NA
"605","CDISC","ADaM-IG","1.2,1.3","Medium","On a given record, APHASEN is present and the value of PHSDT is not equal to the value of variable PHwSDT where w equals the value of APHASEN",NA,NA,"narrative",NA,NA,NA
"606","CDISC","ADaM-IG","1.2,1.3","Medium","On a given record, APHASEN is not present and the value of PHSTM is not equal to the value of at least one PHwSTM variable",NA,NA,"narrative",NA,NA,NA
"607","CDISC","ADaM-IG","1.2,1.3","Medium","On a given record, APHASEN is present and the value of PHSTM is not equal to the value of variable PHwSTM where w equals the value of APHASEN",NA,NA,"narrative",NA,NA,NA
"608","CDISC","ADaM-IG","1.2,1.3","Medium","On a given record, APHASEN is not present and the value of PHSDTM is not equal to the value of at least one PHwSDTM variable",NA,NA,"narrative",NA,NA,NA
"609","CDISC","ADaM-IG","1.2,1.3","Medium","On a given record, APHASEN is present and the value of PHSDTM is not equal to the value of variable PHwSDTM where w equals the value of APHASEN",NA,NA,"narrative",NA,NA,NA
"61","CDISC","ADaM-IG","1.0,1.1,1.2,1.3","Medium","SDTM.EX is present and neither TRTSDT or TRTSDTM are present",NA,NA,"narrative",NA,NA,NA
"610","CDISC","ADaM-IG","1.2,1.3","Medium","On a given record, APHASEN is not present and the value of PHEDT is not equal to the value of at least one PHwEDT variable",NA,NA,"narrative",NA,NA,NA
"611","CDISC","ADaM-IG","1.2,1.3","Medium","On a given record, APHASEN is present and the value of PHEDT is not equal to the value of variable PHwEDT where w equals the value of APHASEN",NA,NA,"narrative",NA,NA,NA
"612","CDISC","ADaM-IG","1.2,1.3","Medium","On a given record, APHASEN is not present and the value of PHETM is not equal to the value of at least one PHwETM variable",NA,NA,"narrative",NA,NA,NA
"613","CDISC","ADaM-IG","1.2,1.3","Medium","On a given record, APHASEN is present and the value of PHETM is not equal to the value of variable PHwETM where w equals the value of APHASEN",NA,NA,"narrative",NA,NA,NA
"614","CDISC","ADaM-IG","1.2,1.3","Medium","On a given record, APHASEN is not present and the value of PHEDTM is not equal to the value of at least one PHwEDTM variable",NA,NA,"narrative",NA,NA,NA
"615","CDISC","ADaM-IG","1.2,1.3","Medium","On a given record, APHASEN is present and the value of PHEDTM is not equal to the value of variable PHwEDTM where w equals the value of APHASEN",NA,NA,"narrative",NA,NA,NA
"616","CDISC","ADaM-IG","1.1,1.2,1.3","Medium","There is more than one value of TRCMPGy for a given value of TRCMPGyN, where y is an integer [1-99, not zero-padded], considering only those rows on which both variables are populated",NA,NA,"narrative",NA,NA,NA
"617","CDISC","ADaM-IG","1.1,1.2,1.3","Medium","There is more than one value of TRCMPGyN for a given value of TRCMPGy, where y is an integer [1-99, not zero-padded], considering only those rows on which both variables are populated",NA,NA,"narrative",NA,NA,NA
"619","CDISC","ADaM-IG","1.0,1.1","Medium","LVOTFL is not equal to Y or null",NA,NA,"narrative",NA,NA,NA
"622","CDISC","ADaM-IG","1.0,1.1,1.2,1.3","Medium","AEOCCUR is present",NA,NA,"narrative",NA,NA,NA
"640","CDISC","ADaM-IG","1.0,1.1,1.2,1.3","Medium","SUPPAE.QNAM=AETRTEM is present but AETRTEM is not present",NA,NA,"narrative",NA,NA,NA
"641","CDISC","ADaM-IG","1.0,1.1,1.2,1.3","Medium","AE.AESTDY is present but AESTDY is not present",NA,NA,"narrative",NA,NA,NA
"642","CDISC","ADaM-IG","1.0,1.1,1.2,1.3","Medium","AE.AEENDY is present but AEENDY is not present",NA,NA,"narrative",NA,NA,NA
"643","CDISC","ADaM-IG","1.0,1.1,1.2,1.3","Medium","AE.AEDUR is present but AEDUR is not present",NA,NA,"narrative",NA,NA,NA
"644","CDISC","ADaM-IG","1.0,1.1,1.2,1.3","Medium","AE.AESEV is present but AESEV is not present",NA,NA,"narrative",NA,NA,NA
"645","CDISC","ADaM-IG","1.0,1.1,1.2,1.3","Medium","AE.AETOXGR is present but AETOXGR is not present",NA,NA,"narrative",NA,NA,NA
"646","CDISC","ADaM-IG","1.0,1.1,1.2,1.3","Medium","AE.AEACN is present and populated on at least one record but AEACN is not present",NA,NA,"narrative",NA,NA,NA
"647","CDISC","ADaM-IG","1.0,1.1,1.2,1.3","Medium","TREMxxFL is Y but TRTEMFL is not Y",NA,NA,"narrative",NA,NA,NA
"648","CDISC","ADaM-IG","1.0,1.1,1.2,1.3","Medium","TRTEMwFL is Y but TRTEMFL is not Y",NA,NA,"narrative",NA,NA,NA
"649","CDISC","ADaM-IG","1.0,1.1,1.2,1.3","Medium","ONTRxxFL is Y but ONTRTFL is not Y",NA,NA,"narrative",NA,NA,NA
"650","CDISC","ADaM-IG","1.0,1.1,1.2,1.3","Medium","ONTRTwFL is Y but ONTRTFL is not Y",NA,NA,"narrative",NA,NA,NA
"651","CDISC","ADaM-IG","1.0,1.1,1.2,1.3","Medium","ONTRxxFL is present but ONTRTFL is not present",NA,NA,"narrative",NA,NA,NA
"652","CDISC","ADaM-IG","1.0,1.1,1.2,1.3","Medium","ONTRTwFL is present but ONTRTFL is not present",NA,NA,"narrative",NA,NA,NA
"653","CDISC","ADaM-IG","1.0,1.1,1.2,1.3","Medium","SRCDOM is present",NA,NA,"narrative",NA,NA,NA
"654","CDISC","ADaM-IG","1.0,1.1,1.2,1.3","Medium","SRCSEQ is present",NA,NA,"narrative",NA,NA,NA
"658","CDISC","ADaM-IG","1.0,1.1,1.2,1.3","Medium","NCAXFN is present and has a value that is not 1 or null",NA,NA,"narrative",NA,NA,NA
"659","CDISC","ADaM-IG","1.0,1.1,1.2,1.3","Medium","PKSUMXFN is present and has a value that is not 1 or null",NA,NA,"narrative",NA,NA,NA
"66","CDISC","ADaM-IG","1.0,1.1,1.2,1.3","Medium","A variable with a prefix of TR, containing PG and a suffix of N is present and a variable with the same root without a suffix of N is not present",NA,NA,"narrative",NA,NA,NA
"660","CDISC","ADaM-IG","1.0,1.1,1.2,1.3","Medium","METABFL is present and has a value that is not Y or null",NA,NA,"narrative",NA,NA,NA
"661","CDISC","ADaM-IG","1.0,1.1,1.2,1.3","Medium","ADOSEDUR is present and NDOSEDUR or DOSEDURU is not present",NA,NA,"narrative",NA,NA,NA
"662","CDISC","ADaM-IG","1.0,1.1,1.2,1.3","Medium","TMPCTDF is populated and ARRLT and NRRLT are not populated",NA,NA,"narrative",NA,NA,NA
"664","CDISC","ADaM-IG","1.0,1.1,1.2,1.3","Medium","On a given record, COHORT is populated and COHORTN is present and not populated",NA,NA,"narrative",NA,NA,NA
"666","CDISC","ADaM-IG","1.0,1.1,1.2,1.3","Medium","DOSPCTDF is populated and DOSEP and DOSEA are not populated",NA,NA,"narrative",NA,NA,NA
"669","CDISC","ADaM-IG","1.0,1.1,1.2,1.3","Medium","On a given record, ACYCLEC is populated and ACYCLE is present and not populated",NA,NA,"narrative",NA,NA,NA
"673","CDISC","ADaM-IG","1.3","Medium","There is more than one value of DEVGRy for a given value of DEVGRyN, considering only those rows on which both variables are populated",NA,NA,"narrative",NA,NA,NA
"674","CDISC","ADaM-IG","1.3","Medium","There is more than one value of DEVGRyN for a given value of DEVGRy, considering only those rows on which both variables are populated",NA,NA,"narrative",NA,NA,NA
"677","CDISC","ADaM-IG","1.3","Medium","There is more than one value of DEVTYGy for a given value of DEVTYGyN, considering only those rows on which both variables are populated",NA,NA,"narrative",NA,NA,NA
"678","CDISC","ADaM-IG","1.3","Medium","There is more than one value of DEVTYGyN for a given value of DEVTYGy, considering only those rows on which both variables are populated",NA,NA,"narrative",NA,NA,NA
"681","CDISC","ADaM-IG","1.3","Medium","There is more than one value of MODELGy for a given value of MODELGyN, considering only those rows on which both variables are populated",NA,NA,"narrative",NA,NA,NA
"682","CDISC","ADaM-IG","1.3","Medium","There is more than one value of MODELGyN for a given value of MODELGy, considering only those rows on which both variables are populated",NA,NA,"narrative",NA,NA,NA
"687","CDISC","ADaM-IG","1.3","Medium","The value of DEVIPDT is greater than the value of DEVXPDT, considering only rows on which both variables are populated",NA,NA,"narrative",NA,NA,NA
"691","CDISC","ADaM-IG","1.3","Medium","Within a given value of PARAMCD for a combination of device and subject, BASE is populated and there is not at least one record with ABLFL equal to Y",NA,NA,"narrative",NA,NA,NA
"692","CDISC","ADaM-IG","1.3","Medium","Within a given value of PARAMCD for a combination of device and subject, BASEC is populated and there is not at least one record with ABLFL equal to Y",NA,NA,"narrative",NA,NA,NA
"693","CDISC","ADaM-IG","1.3","Medium","Within a given value of PARAMCD for a combination of device and subject, there is more than one value of BASE for a given value of BASEC, considering only those rows on which both variables are populated",NA,NA,"narrative",NA,NA,NA
"694","CDISC","ADaM-IG","1.3","Medium","Within a given value of PARAMCD for a combination of device and subject, there is more than one value of BASEC for a given value of BASE, considering only those rows on which both variables are populated",NA,NA,"narrative",NA,NA,NA
"695","CDISC","ADaM-IG","1.3","Medium","BASETYPE is present, BASE is populated, and BASE is not equal to AVAL where ABLFL is equal to Y for a given value of PARAMCD and BASETYPE for a combination of device and subject",NA,NA,"narrative",NA,NA,NA
"696","CDISC","ADaM-IG","1.3","Medium","Within a given PARAMCD and BASETYPE for a combination of device and subject, more than one record has ABLFL equal to Y",NA,NA,"narrative",NA,NA,NA
"697","CDISC","ADaM-IG","1.3","Medium","Within a given PARAMCD for a combination of device and subject, more than one record has ABLFL equal to Y and BASETYPE is not present",NA,NA,"narrative",NA,NA,NA
"698","CDISC","ADaM-IG","1.3","Medium","BASETYPE is not present, BASE is populated, and BASE is not equal to AVAL where ABLFL is equal to Y for a given value of PARAMCD for a combination of device and subject",NA,NA,"narrative",NA,NA,NA
"699","CDISC","ADaM-IG","1.3","Medium","BASETYPE is not present, BNRIND is populated, and BNRIND is not equal to ANRIND where ABLFL is equal to Y for a given value of PARAMCD for a combination of device and subject",NA,NA,"narrative",NA,NA,NA
"7","CDISC","ADaM-IG","1.0,1.1,1.2,1.3","Medium","A variable with a suffix of FN is present but a variable with the same root and a suffix of FL is not present",NA,NA,"narrative",NA,NA,NA
"70","CDISC","ADaM-IG","1.0,1.1,1.2,1.3","Medium","A variable with a prefix of TR, containing AG with a suffix of N is present and a variable with the same root without a suffix of N is not present",NA,NA,"narrative",NA,NA,NA
"700","CDISC","ADaM-IG","1.3","Medium","Within a given value of PARAMCD for a combination of device and subject, CHG is populated and is not equal to AVAL - BASE",NA,NA,"narrative",NA,NA,NA
"701","CDISC","ADaM-IG","1.3","Medium","Within a given value of PARAMCD for a combination of device and subject, PCHG is populated and is not equal to ((AVAL - BASE)/BASE)*100",NA,NA,"narrative",NA,NA,NA
"702","CDISC","ADaM-IG","1.3","Medium","BASETYPE is present, ByIND is populated, and ByIND is not equal to AyIND where ABLFL is equal to Y for a given value of PARAMCD and BASETYPE for a combination of device and subject",NA,NA,"narrative",NA,NA,NA
"703","CDISC","ADaM-IG","1.3","Medium","BASETYPE is not present, ByIND is populated, and ByIND is not equal to AyIND where ABLFL is equal to Y for a given value of PARAMCD for a combination of device and subject",NA,NA,"narrative",NA,NA,NA
"704","CDISC","ADaM-IG","1.3","Medium","Within a given value of PARAMCD for a combination of device and subject, BCHG is populated and is not equal to BASE-AVAL",NA,NA,"narrative",NA,NA,NA
"705","CDISC","ADaM-IG","1.3","Medium","Within a given value of PARAMCD for a combination of device and subject, PBCHG is populated and is not equal to ((BASE-AVAL)/AVAL)*100",NA,NA,"narrative",NA,NA,NA
"706","CDISC","ADaM-IG","1.2,1.3","Medium","For every unique xx value of APERIOD in BDS or OCCDS datasets, there is not a variable PxxSw",NA,NA,"narrative",NA,NA,NA
"707","CDISC","ADaM-IG","1.2,1.3","Medium","For every unique w value of ASPER in BDS or OCCDS datasets, there is not a variable PxxSw",NA,NA,"narrative",NA,NA,NA
"708","CDISC","ADaM-IG","1.1","Medium","Labels for ADaM variables do not match the standard labels for ADaM variables listed in the implementation guide that cannot be modified (with the exception of (1) variables whose names contain indexes ""w"", “y”, ""xx"", or “zz”; and (2) variable labels with asterisks (*), braces ({...}), and ellipses (...) indicated for sponsor appropriate text)",NA,NA,"narrative",NA,NA,NA
"709","CDISC","ADaM-IG","1.2,1.3","Medium","Labels for ADaM variables do not match the standard labels for ADaM variables listed in the implementation guide that cannot be modified (with the exception of (1) variables whose names contain indexes ""w"", “y”, or “zz”; and (2) variable labels with asterisks (*), braces ({...}), and ellipses (...) indicated for sponsor appropriate text)",NA,NA,"narrative",NA,NA,NA
"710","CDISC","ADaM-IG","1.2,1.3","Medium","A variable with a suffix of RFL has a value that is not Y, N, or null",NA,NA,"narrative",NA,NA,NA
"711","CDISC","ADaM-IG","1.2,1.3","Medium","A variable with a suffix of PFL has a value that is not Y, N, or null",NA,NA,"narrative",NA,NA,NA
"712","CDISC","ADaM-IG","1.2,1.3","Medium","A variable with a suffix of RFN has a value that is not 1, 0 or null",NA,NA,"narrative",NA,NA,NA
"713","CDISC","ADaM-IG","1.2,1.3","Medium","A variable with a suffix of PFN has a value that is not 1, 0, or null",NA,NA,"narrative",NA,NA,NA
"714","CDISC","ADaM-IG","1.1,1.2,1.3","Medium","There is more than one value of a variable which has a suffix of GRyN for a given value of a variable with the same root name and suffix of GRy, considering only those rows on which both variables are populated",NA,NA,"narrative",NA,NA,NA
"715","CDISC","ADaM-IG","1.1,1.2,1.3","Medium","There is more than one value of a variable which has a suffix of GRy for a given value of a variable with the same root name and suffix of GRyN, considering only those rows on which both variables are populated",NA,NA,"narrative",NA,NA,NA
"716","CDISC","ADaM-IG","1.1,1.2,1.3","Medium","A variable with a suffix of TM is not a numeric variable excluding SDTM variables with a suffix of ELTM",NA,NA,"narrative",NA,NA,NA
"717","CDISC","ADaM-IG","1.1,1.2,1.3","Medium","There is more than one value of TRTxxPN for a given value of TRTxxP, considering only those rows on which both variables are populated",NA,NA,"narrative",NA,NA,NA
"718","CDISC","ADaM-IG","1.1,1.2,1.3","Medium","There is more than one value of TRTxxP for a given value of TRTxxPN, considering only those rows on which both variables are populated",NA,NA,"narrative",NA,NA,NA
"719","CDISC","ADaM-IG","1.1,1.2,1.3","Medium","None of the subject-level or record-level treatment variables defined in the IG is present",NA,NA,"narrative",NA,NA,NA
"720","CDISC","ADaM-IG","1.1,1.2,1.3","Medium","A non-missing value of TRTP is not equal to at least one value of the character planned treatment variables in ADSL defined in the IG",NA,NA,"narrative",NA,NA,NA
"727","CDISC","ADaM-IG","1.1,1.2,1.3","Medium","Within a given value of PARAMCD, there is more than one value of AVISITN for a given value of AVISIT, considering only those rows on which both variables are populated",NA,NA,"narrative",NA,NA,NA
"728","CDISC","ADaM-IG","1.1,1.2,1.3","Medium","Within a given value of PARAMCD, there is more than one value of AVISIT for a given value of AVISITN, considering only those rows on which both variables are populated",NA,NA,"narrative",NA,NA,NA
"729","CDISC","ADaM-IG","1.1","Medium","Within a given value of PARAMCD, there is more than one value of ATPTN for a given value of ATPT, considering only those rows on which both variables are populated",NA,NA,"narrative",NA,NA,NA
"730","CDISC","ADaM-IG","1.1,1.2,1.3","Medium","There is more than one value of PARCATy for a given value of PARCATyN, considering only those rows on which both variables are populated",NA,NA,"narrative",NA,NA,NA
"731","CDISC","ADaM-IG","1.1,1.2,1.3","Medium","There is more than one value of PARCATyN for a given value of PARCATy, considering only those rows on which both variables are populated",NA,NA,"narrative",NA,NA,NA
"732","CDISC","ADaM-IG","1.1,1.2,1.3","Medium","Within a given value of PARAMCD for a subject, there is more than one value of BASE for a given value of BASEC, considering only those rows on which both variables are populated",NA,NA,"narrative",NA,NA,NA
"733","CDISC","ADaM-IG","1.1,1.2,1.3","Medium","Within a given value of PARAMCD for a subject, there is more than one value of BASEC for a given value of BASE, considering only those rows on which both variables are populated",NA,NA,"narrative",NA,NA,NA
"734","CDISC","ADaM-IG","1.1","Medium","Within a dataset, BASETYPE is populated for at least one record and is not populated for at least one record",NA,NA,"narrative",NA,NA,NA
"735","CDISC","ADaM-IG","1.3","Medium","Within a given value of PARAMCD where either BASE or BASEC are populated, BASETYPE is populated for at least one record and is not populated for at least one record",NA,NA,"narrative",NA,NA,NA
"736","CDISC","ADaM-IG","1.1,1.2,1.3","Medium","Within a given value of PARAMCD, there is more than one value of SHIFTy for a given value of SHIFTyN, considering only those rows on which both variables are populated",NA,NA,"narrative",NA,NA,NA
"737","CDISC","ADaM-IG","1.1,1.2,1.3","Medium","Within a given value of PARAMCD, there is more than one value of SHIFTyN for a given value of SHIFTy, considering only those rows on which both variables are populated",NA,NA,"narrative",NA,NA,NA
"740","CDISC","ADaM-IG","1.1,1.2,1.3","Medium","Within a dataset, there is more than one value of PARAM for a given value of PARAMN, considering only those rows on which both variables are populated",NA,NA,"narrative",NA,NA,NA
"741","CDISC","ADaM-IG","1.1,1.2,1.3","Medium","Within a dataset, there is more than one value of PARAMN for a given value of PARAM, considering only those rows on which both variables are populated",NA,NA,"narrative",NA,NA,NA
"742","CDISC","ADaM-IG","1.1,1.2,1.3","Medium","Within a given value of PARAMCD, there is more than one value of AVALC for a given value of AVAL, considering only those rows on which both variables are populated",NA,NA,"narrative",NA,NA,NA
"743","CDISC","ADaM-IG","1.1,1.2,1.3","Medium","Within a given value of PARAMCD, there is more than one value of AVAL for a given value of AVALC, considering only those rows on which both variables are populated",NA,NA,"narrative",NA,NA,NA
"744","CDISC","ADaM-IG","1.3","Medium","BASETYPE is populated, BTOXGR is populated, and BTOXGR is not equal to ATOXGR where ABLFL is equal to Y for a given value of PARAMCD and BASETYPE for a subject",NA,NA,"narrative",NA,NA,NA
"745","CDISC","ADaM-IG","1.3","Medium","BASETYPE is populated, BNRIND is populated, and BNRIND is not equal to ANRIND where ABLFL is equal to Y for a given value of PARAMCD and BASETYPE for a subject",NA,NA,"narrative",NA,NA,NA
"746","CDISC","ADaM-IG","1.1,1.2,1.3","Medium","SRCDOM has a value that is not an SDTM domain name, ADaM dataset name, or null",NA,NA,"narrative",NA,NA,NA
"747","CDISC","ADaM-IG","1.1","Medium","Within a given value of PARAMCD, there is more than one value of AVALCATy for a given value of AVAL, where y is a single-digit integer [1-9]",NA,NA,"narrative",NA,NA,NA
"748","CDISC","ADaM-IG","1.2,1.3","Medium","Within a given value of PARAMCD, there is more than one value of AVALCATy for a given value of AVAL and y, where y is a single-digit integer [1-9]",NA,NA,"narrative",NA,NA,NA
"749","CDISC","ADaM-IG","1.1,1.2,1.3","Medium","Within a given value of PARAMCD, there is more than one value of BASECATy for a given value of BASE and y, where y is a single-digit integer [1-9]",NA,NA,"narrative",NA,NA,NA
"750","CDISC","ADaM-IG","1.1,1.2,1.3","Medium","Within a given value of PARAMCD, there is more than one value of CHGCATy for a given value of CHG and y, where y is an integer [1-99, not zero-padded]",NA,NA,"narrative",NA,NA,NA
"751","CDISC","ADaM-IG","1.1,1.2,1.3","Medium","Within a given value of PARAMCD, there is more than one value of PCHGCATy for a given value of PCHG and y, where y is a single-digit integer [1-9]",NA,NA,"narrative",NA,NA,NA
"756","CDISC","ADaM-IG","1.1,1.2,1.3","Medium","Within a given value of TRTxxP, there is more than one value of TRxxPGy, where xx is an integer [01-99, zero-padded] and y is an integer [1-99, not zero-padded]",NA,NA,"narrative",NA,NA,NA
"757","CDISC","ADaM-IG","1.1,1.2,1.3","Medium","There is more than one value of TRxxPGy for a given value of TRxxPGyN, where xx is an integer [01-99, zero-padded] and y is a single-digit integer [1-9], considering only those rows on which both variables are populated",NA,NA,"narrative",NA,NA,NA
"758","CDISC","ADaM-IG","1.1,1.2,1.3","Medium","There is more than one value of TRxxPGyN for a given value of TRxxPGy, where xx is an integer [01-99, zero-padded] and y is a single-digit integer [1-9], considering only those rows on which both variables are populated",NA,NA,"narrative",NA,NA,NA
"759","CDISC","ADaM-IG","1.1,1.2,1.3","Medium","Within a given value of TRTxxA, there is more than one value of TRxxAGy, where xx is an integer [01-99, zero-padded] and y is an integer [1-99, not zero-padded]",NA,NA,"narrative",NA,NA,NA
"760","CDISC","ADaM-IG","1.1,1.2,1.3","Medium","There is more than one value of TRxxAGy for a given value of TRxxAGyN, where xx is an integer [01-99, zero-padded] and y is a single-digit integer [1-9], considering only those rows on which both variables are populated",NA,NA,"narrative",NA,NA,NA
"761","CDISC","ADaM-IG","1.1,1.2,1.3","Medium","There is more than one value of TRxxAGyN for a given value of TRxxAGy, where xx is an integer [01-99, zero-padded] and y is a single-digit integer [1-9], considering only those rows on which both variables are populated",NA,NA,"narrative",NA,NA,NA
"762","CDISC","ADaM-IG","1.1,1.2,1.3","Medium","There is more than one value of TRTPGy for a given value of TRTPGyN, where y is an integer [1-99, not zero-padded], considering only those rows on which both variables are populated",NA,NA,"narrative",NA,NA,NA
"763","CDISC","ADaM-IG","1.1,1.2,1.3","Medium","There is more than one value of TRTPGyN for a given value of TRTPGy, where y is an integer [1-99, not zero-padded], considering only those rows on which both variables are populated",NA,NA,"narrative",NA,NA,NA
"764","CDISC","ADaM-IG","1.1,1.2,1.3","Medium","TRTPGy is present and TRTA is present but TRTAGy is not present, where y is an integer [1-99, not zero-padded]",NA,NA,"narrative",NA,NA,NA
"765","CDISC","ADaM-IG","1.1,1.2,1.3","Medium","There is more than one value of TRTAGy for a given value of TRTAGyN, where y is an integer [1-99, not zero-padded], considering only those rows on which both variables are populated",NA,NA,"narrative",NA,NA,NA
"766","CDISC","ADaM-IG","1.1,1.2,1.3","Medium","There is more than one value of TRTAGyN for a given value of TRTAGy, where y is an integer [1-99, not zero-padded], considering only those rows on which both variables are populated",NA,NA,"narrative",NA,NA,NA
"767","CDISC","ADaM-IG","1.1,1.2,1.3","Medium","There is more than one value of TRTxxAN for a given value of TRTxxA, where xx is an integer [01-99, zero-padded], considering only those rows on which both variables are populated",NA,NA,"narrative",NA,NA,NA
"768","CDISC","ADaM-IG","1.1,1.2,1.3","Medium","There is more than one value of TRTxxA for a given value of TRTxxAN, where xx is an integer [01-99, zero-padded], considering only those rows on which both variables are populated",NA,NA,"narrative",NA,NA,NA
"773","CDISC","ADaM-IG","1.1,1.2,1.3","Medium","There is more than one value of SEVGRy for a given value of SEVGRyN, considering only those rows on which both variables are populated",NA,NA,"narrative",NA,NA,NA
"774","CDISC","ADaM-IG","1.1,1.2,1.3","Medium","There is more than one value of SEVGRyN for a given value of SEVGRy, considering only those rows on which both variables are populated",NA,NA,"narrative",NA,NA,NA
"779","CDISC","ADaM-IG","1.1,1.2,1.3","Medium","There is more than one value of RELGRy for a given value of RELGRyN, considering only those rows on which both variables are populated",NA,NA,"narrative",NA,NA,NA
"78","CDISC","ADaM-IG","1.0,1.1,1.2,1.3","Medium","At least one TRTxxP is present where xx is greater than 01 and TRxxSDT is not present",NA,NA,"narrative",NA,NA,NA
"780","CDISC","ADaM-IG","1.1,1.2,1.3","Medium","There is more than one value of RELGRyN for a given value of RELGRy, considering only those rows on which both variables are populated",NA,NA,"narrative",NA,NA,NA
"785","CDISC","ADaM-IG","1.1,1.2,1.3","Medium","There is more than one value of TOXGGRy for a given value of TOXGGRyN, considering only those rows on which both variables are populated",NA,NA,"narrative",NA,NA,NA
"786","CDISC","ADaM-IG","1.1,1.2,1.3","Medium","There is more than one value of TOXGGRyN for a given value of TOXGGRy, considering only those rows on which both variables are populated",NA,NA,"narrative",NA,NA,NA
"787","CDISC","ADaM-IG","1.1,1.2,1.3","Medium","There is more than one value of SMQzzSC for a given value of SMQzzSCN, considering only those rows on which both variables are populated",NA,NA,"narrative",NA,NA,NA
"788","CDISC","ADaM-IG","1.1,1.2,1.3","Medium","There is more than one value of SMQzzSCN for a given value of SMQzzSC, considering only those rows on which both variables are populated",NA,NA,"narrative",NA,NA,NA
"789","CDISC","ADaM-IG","1.3","Medium","BASETYPE is populated, BASE is populated, and BASE is not equal to AVAL where ABLFL is equal to Y for a given value of PARAMCD and BASETYPE for a subject",NA,NA,"narrative",NA,NA,NA
"79","CDISC","ADaM-IG","1.0,1.1,1.2,1.3","Medium","At least one TRTxxP is present where xx is greater than 01 and TRxxEDT is not present",NA,NA,"narrative",NA,NA,NA
"790","CDISC","ADaM-IG","1.3","Medium","BASETYPE is populated, ByIND is populated, and ByIND is not equal to AyIND where ABLFL is equal to Y for a given value of PARAMCD and BASETYPE for a subject",NA,NA,"narrative",NA,NA,NA
"791","CDISC","ADaM-IG","1.1","Medium","Within a given value of PARAMCD, there is more than one value of ATPT for a given value of ATPTN, considering only those rows on which both variables are populated",NA,NA,"narrative",NA,NA,NA
"792","CDISC","ADaM-IG","1.0,1.1,1.2,1.3","Medium","On a given record, a variable with a suffix of SDT has a value greater than a value of a variable with the same root and a suffix of EDT, and both variables are populated",NA,NA,"narrative",NA,NA,NA
"793","CDISC","ADaM-IG","1.0,1.1,1.2,1.3","Medium","On a given record, a variable with a suffix of STM has a value greater than a value of a variable with the same root and a suffix of ETM, and both variables are populated",NA,NA,"narrative",NA,NA,NA
"794","CDISC","ADaM-IG","1.0,1.1,1.2,1.3","Medium","On a given record, a variable with a suffix of SDTM has a value greater than a value of a variable with the same root and a suffix of EDTM, and both variables are populated",NA,NA,"narrative",NA,NA,NA
"797","CDISC","ADaM-IG","1.3","Medium","Within a dataset, there is more than one value of PROJIDN for a given value of PROJID, considering only those rows on which both variables are populated.  ",NA,NA,"narrative",NA,NA,NA
"798","CDISC","ADaM-IG","1.3","Medium","Within a dataset, there is more than one value of PROJID for a given value of PROJIDN, considering only those rows on which both variables are populated",NA,NA,"narrative",NA,NA,NA
"802","CDISC","ADaM-IG","1.3","Medium","Within a dataset, there is more than one value of STUDYIDN for a given value of STUDYID, considering only those rows on which both variables are populated.  ",NA,NA,"narrative",NA,NA,NA
"803","CDISC","ADaM-IG","1.3","Medium","Within a dataset, there is more than one value of STUDYID for a given value of STUDYIDN, considering only those rows on which both variables are populated",NA,NA,"narrative",NA,NA,NA
"807","CDISC","ADaM-IG","1.3","Medium","Within a dataset, there is more than one value of SUBJTYPC for a given value of SUBJTYP, considering only those rows on which both variables are populated.  ",NA,NA,"narrative",NA,NA,NA
"808","CDISC","ADaM-IG","1.3","Medium","Within a dataset, there is more than one value of SUBJTYP for a given value of SUBJTYPC, considering only those rows on which both variables are populated",NA,NA,"narrative",NA,NA,NA
"81","CDISC","ADaM-IG","1.0,1.1,1.2,1.3","Medium","TRTxxP is present and xx is greater than 01 and TRT{xx-1}P is not present",NA,NA,"narrative",NA,NA,NA
"812","CDISC","ADaM-IG","1.3","Medium","Within a dataset, there is more than one value of USUBJIDN for a given value of USUBJID, considering only those rows on which both variables are populated.  ",NA,NA,"narrative",NA,NA,NA
"813","CDISC","ADaM-IG","1.3","Medium","Within a dataset, there is more than one value of USUBJID for a given value of USUBJIDN, considering only those rows on which both variables are populated",NA,NA,"narrative",NA,NA,NA
"817","CDISC","ADaM-IG","1.3","Medium","Within a dataset, there is more than one value of SUBJIDN for a given value of SUBJID, considering only those rows on which both variables are populated.  ",NA,NA,"narrative",NA,NA,NA
"818","CDISC","ADaM-IG","1.3","Medium","Within a dataset, there is more than one value of SUBJID for a given value of SUBJIDN, considering only those rows on which both variables are populated",NA,NA,"narrative",NA,NA,NA
"822","CDISC","ADaM-IG","1.3","Medium","Within a dataset, there is more than one value of SITEIDN for a given value of SITEID, considering only those rows on which both variables are populated.  ",NA,NA,"narrative",NA,NA,NA
"823","CDISC","ADaM-IG","1.3","Medium","Within a dataset, there is more than one value of SITEID for a given value of SITEIDN, considering only those rows on which both variables are populated",NA,NA,"narrative",NA,NA,NA
"827","CDISC","ADaM-IG","1.3","Medium","Within a dataset, there is more than one value of FLGREASC for a given value of FLGREAS, considering only those rows on which both variables are populated.  ",NA,NA,"narrative",NA,NA,NA
"828","CDISC","ADaM-IG","1.3","Medium","Within a dataset, there is more than one value of FLGREAS for a given value of FLGREASC, considering only those rows on which both variables are populated",NA,NA,"narrative",NA,NA,NA
"832","CDISC","ADaM-IG","1.3","Medium","Within a dataset, there is more than one value of DVIDN for a given value of DVID, considering only those rows on which both variables are populated.  ",NA,NA,"narrative",NA,NA,NA
"833","CDISC","ADaM-IG","1.3","Medium","Within a dataset, there is more than one value of DVID for a given value of DVIDN, considering only those rows on which both variables are populated",NA,NA,"narrative",NA,NA,NA
"837","CDISC","ADaM-IG","1.3","Medium","Within a dataset, there is more than one value of BLQFN for a given value of BLQFL, considering only those rows on which both variables are populated.  ",NA,NA,"narrative",NA,NA,NA
"838","CDISC","ADaM-IG","1.3","Medium","Within a dataset, there is more than one value of BLQFL for a given value of BLQFN, considering only those rows on which both variables are populated",NA,NA,"narrative",NA,NA,NA
"84","CDISC","ADaM-IG","1.0,1.1,1.2,1.3","Medium","TRTEDT is not equal to the maximum value of all TRxxEDT variables",NA,NA,"narrative",NA,NA,NA
"842","CDISC","ADaM-IG","1.3","Medium","Within a dataset, there is more than one value of ALQFN for a given value of ALQFL, considering only those rows on which both variables are populated.  ",NA,NA,"narrative",NA,NA,NA
"843","CDISC","ADaM-IG","1.3","Medium","Within a dataset, there is more than one value of ALQFL for a given value of ALQFN, considering only those rows on which both variables are populated",NA,NA,"narrative",NA,NA,NA
"847","CDISC","ADaM-IG","1.3","Medium","Within a dataset, there is more than one value of FORMN for a given value of FORM, considering only those rows on which both variables are populated.  ",NA,NA,"narrative",NA,NA,NA
"848","CDISC","ADaM-IG","1.3","Medium","Within a dataset, there is more than one value of FORM for a given value of FORMN, considering only those rows on which both variables are populated",NA,NA,"narrative",NA,NA,NA
"852","CDISC","ADaM-IG","1.3","Medium","Within a dataset, there is more than one value of ROUTEN for a given value of ROUTE, considering only those rows on which both variables are populated.  ",NA,NA,"narrative",NA,NA,NA
"853","CDISC","ADaM-IG","1.3","Medium","Within a dataset, there is more than one value of ROUTE for a given value of ROUTEN, considering only those rows on which both variables are populated",NA,NA,"narrative",NA,NA,NA
"857","CDISC","ADaM-IG","1.3","Medium","Within a dataset, there is more than one value of ACYCLEC for a given value of ACYCLE, considering only those rows on which both variables are populated.  ",NA,NA,"narrative",NA,NA,NA
"858","CDISC","ADaM-IG","1.3","Medium","Within a dataset, there is more than one value of ACYCLE for a given value of ACYCLEC, considering only those rows on which both variables are populated",NA,NA,"narrative",NA,NA,NA
"862","CDISC","ADaM-IG","1.3","Medium","Within a dataset, there is more than one value of COHORTC for a given value of COHORT, considering only those rows on which both variables are populated.  ",NA,NA,"narrative",NA,NA,NA
"863","CDISC","ADaM-IG","1.3","Medium","Within a dataset, there is more than one value of COHORT for a given value of COHORTC, considering only those rows on which both variables are populated",NA,NA,"narrative",NA,NA,NA
"867","CDISC","ADaM-IG","1.3","Medium","Within a dataset, there is more than one value of RACEN for a given value of RACE, considering only those rows on which both variables are populated.  ",NA,NA,"narrative",NA,NA,NA
"868","CDISC","ADaM-IG","1.3","Medium","Within a dataset, there is more than one value of RACE for a given value of RACEN, considering only those rows on which both variables are populated",NA,NA,"narrative",NA,NA,NA
"872","CDISC","ADaM-IG","1.3","Medium","Within a dataset, there is more than one value of SEXN for a given value of SEX, considering only those rows on which both variables are populated.  ",NA,NA,"narrative",NA,NA,NA
"873","CDISC","ADaM-IG","1.3","Medium","Within a dataset, there is more than one value of SEX for a given value of SEXN, considering only those rows on which both variables are populated",NA,NA,"narrative",NA,NA,NA
"877","CDISC","ADaM-IG","1.3","Medium","Within a dataset, there is more than one value of COUNTRYN for a given value of COUNTRY, considering only those rows on which both variables are populated.  ",NA,NA,"narrative",NA,NA,NA
"878","CDISC","ADaM-IG","1.3","Medium","Within a dataset, there is more than one value of COUNTRY for a given value of COUNTRYN, considering only those rows on which both variables are populated",NA,NA,"narrative",NA,NA,NA
"882","CDISC","ADaM-IG","1.3","Medium","Within a dataset, there is more than one value of COUNTRYL for a given value of COUNTRY, considering only those rows on which both variables are populated.  ",NA,NA,"narrative",NA,NA,NA
"883","CDISC","ADaM-IG","1.3","Medium","Within a dataset, there is more than one value of COUNTRY for a given value of COUNTRYL, considering only those rows on which both variables are populated",NA,NA,"narrative",NA,NA,NA
"891","CDISC","ADaM-IG","1.0,1.1,1.2,1.3","Medium","On a given record, there is more than one value of COHORTN for a given value of COHORT",NA,NA,"narrative",NA,NA,NA
"892","CDISC","ADaM-IG","1.0,1.1,1.2,1.3","Medium","On a given record, there is more than one value of COHORT for a given value of COHORTN",NA,NA,"narrative",NA,NA,NA
"893","CDISC","ADaM-IG","1.0,1.1,1.2,1.3","Medium","On a given record, there is more than one value of ACYCLEC for a given value of ACYCLE",NA,NA,"narrative",NA,NA,NA
"894","CDISC","ADaM-IG","1.0,1.1,1.2,1.3","Medium","On a given record, there is more than one value of ACYCLE for a given value of ACYCLEC",NA,NA,"narrative",NA,NA,NA
"895","CDISC","ADaM-IG","1.1,1.2,1.3","Medium","A variable with a prefix of CRIT, a suffix of FL and containing either a one-digit or two-digit number (CRITyFL) is present and a variable with the same root without a suffix of FL (CRITy) is not present",NA,NA,"narrative",NA,NA,NA
"896","CDISC","ADaM-IG","1.2,1.3","Medium","AWU is present and AWLO, AWHI, AWTARGET, and AWTDIFF are not present",NA,NA,"narrative",NA,NA,NA
"897","CDISC","ADaM-IG","1.1,1.2,1.3","Medium","A non-missing value of TRTA is not equal to at least one value of the character actual treatment variables in ADSL defined in the IG",NA,NA,"narrative",NA,NA,NA
"898","CDISC","ADaM-IG","1.0,1.1,1.2,1.3","Medium","For a value of AD*.USUBJID that is a value of --.USUBJID, a value of AD*.--SEQ is not a value of --.--SEQ",NA,NA,"narrative",NA,NA,NA
"899","CDISC","ADaM-IG","1.0,1.1,1.2,1.3","Medium","AD*.USUBJID equals --.USUBJID, AD*.--SEQ equals --.--SEQ, and the values of a variable with prefix -- which is present in both datasets are not equal",NA,NA,"narrative",NA,NA,NA
"98","CDISC","ADaM-IG","1.0,1.1,1.2,1.3","Medium","On a given record, a variable with a suffix of SDY has a value greater than a value of a variable with the same root and a suffix of EDY, and both variables are populated",NA,NA,"narrative",NA,NA,NA
"99","CDISC","ADaM-IG","1.0,1.1,1.2,1.3","Medium","On a given record, a variable with a suffix of STDY has a value greater than a value of a variable with the same root and a suffix of ENDY, and both variables are populated",NA,NA,"narrative",NA,NA,NA
"CG0001","CDISC","SDTM-IG","3.2,3.3,3.4","Medium","DOMAIN = valid Domain Code published by CDISC",NA,NA,"narrative",NA,NA,NA
"CG0002","CDISC","SDTM-IG","3.2,3.3,3.4","Medium","--DUR collected and not derived",NA,NA,"narrative",NA,NA,NA
"CG0006","CDISC","SDTM-IG","3.2,3.3,3.4","Medium","--DY calculated as per the study day algorithm as a non-zero integer value",NA,NA,"narrative",NA,NA,NA
"CG0007","CDISC","SDTM-IG","3.2,3.3,3.4","Medium","--DY = null",NA,NA,"narrative",NA,NA,NA
"CG0010","CDISC","SDTM-IG","3.2,3.3,3.4","Medium","Metadata attribute of Variable Role = IG Role for domains in IG, Metadata attribute of Variable Role = Model Role for custom domains",NA,NA,"narrative",NA,NA,NA
"CG0011","CDISC","SDTM-IG","3.2,3.3,3.4","Medium","Variable Format = SDTM-specified controlled terminology and format guidelines for variables, when provided",NA,NA,"narrative",NA,NA,NA
"CG0012","CDISC","SDTM-IG","3.2,3.3,3.4","Medium","Variable Type = IG Type for domains in IG, Type = Model Type for custom domains",NA,NA,"narrative",NA,NA,NA
"CG0013","CDISC","SDTM-IG","3.2,3.3,3.4","Medium","Variable = Model List of Allowed Variables for Observation Class",NA,NA,"narrative",NA,NA,NA
"CG0014","CDISC","SDTM-IG","3.2,3.3,3.4","Medium","Variable present in dataset and ^= null",NA,NA,"narrative",NA,NA,NA
"CG0015","CDISC","SDTM-IG","3.2,3.3,3.4","Medium","Variable present in dataset and ^= null",NA,NA,"narrative",NA,NA,NA
"CG0016","CDISC","SDTM-IG","3.2,3.3,3.4","Medium","Variable present in dataset",NA,NA,"narrative",NA,NA,NA
"CG0017","CDISC","SDTM-IG","3.2,3.3,3.4","Medium","Split dataset names length > 2 and <= 4",NA,NA,"narrative",NA,NA,NA
"CG0018","CDISC","SDTM-IG","3.2,3.3,3.4","Medium","Split dataset names length <= 8",NA,NA,"narrative",NA,NA,NA
"CG0019","CDISC","SDTM-IG","3.2,3.3,3.4","Medium","Each record is unique per sponsor defined key variables as documented in the define.xml",NA,NA,"narrative",NA,NA,NA
"CG0020","CDISC","SDTM-IG","3.2,3.3,3.4","Medium","Value in associated codelist or 'MULTIPLE'",NA,NA,"narrative",NA,NA,NA
"CG0021","CDISC","SDTM-IG","3.2,3.3,3.4","Medium","Value in associated codelist or 'OTHER'",NA,NA,"narrative",NA,NA,NA
"CG0022","CDISC","SDTM-IG","3.2,3.3,3.4","Medium","--LNKGRP present in another domain",NA,NA,"narrative",NA,NA,NA
"CG0024","CDISC","SDTM-IG","3.2,3.3,3.4","Medium","--LNKID present in another domain",NA,NA,"narrative",NA,NA,NA
"CG0028","CDISC","SDTM-IG","3.2,3.3,3.4","Medium","--SEQ is a unique number per USUBJID per domain, or a unique number per POOLID per domain, including when the domain is split into multiple files",NA,NA,"narrative",NA,NA,NA
"CG0032","CDISC","SDTM-IG","3.2,3.3,3.4","Medium","VISITDY = TV.VISITDY",NA,NA,"narrative",NA,NA,NA
"CG0037","CDISC","SDTM-IG","3.2,3.3,3.4","Medium","--SOCCD = --BDSYCD",NA,NA,"narrative",NA,NA,NA
"CG0039","CDISC","SDTM-IG","3.2,3.3,3.4","Medium","--BODSYS = --SOC",NA,NA,"narrative",NA,NA,NA
"CG0041","CDISC","SDTM-IG","3.2,3.3,3.4","Medium","AESER = 'Y'",NA,NA,"narrative",NA,NA,NA
"CG0042","CDISC","SDTM-IG","3.2,3.3,3.4","Medium","AESER = 'N'",NA,NA,"narrative",NA,NA,NA
"CG0043","CDISC","SDTM-IG","3.2,3.3,3.4","Medium","AESMIE = 'Y'",NA,NA,"narrative",NA,NA,NA
"CG0067","CDISC","SDTM-IG","3.2,3.3,3.4","Medium","DSDECOD = 'DEATH'",NA,NA,"narrative",NA,NA,NA
"CG0069","CDISC","SDTM-IG","3.2,3.3,3.4","Medium","DSSTDTC = DM.DTHDTC",NA,NA,"narrative",NA,NA,NA
"CG0071","CDISC","SDTM-IG","3.2,3.3,3.4","Medium","DSTERM = 'COMPLETED' or the reason for discontinuation",NA,NA,"narrative",NA,NA,NA
"CG0076","CDISC","SDTM-IG","3.2,3.3,3.4","Medium","Event is not derived",NA,NA,"narrative",NA,NA,NA
"CG0077","CDISC","SDTM-IG","3.2,3.3,3.4","Medium","MHCAT ^= the same value for all records",NA,NA,"narrative",NA,NA,NA
"CG0078","CDISC","SDTM-IG","3.2,3.3,3.4","Medium","MHENDTC < DM.RFSTDTC",NA,NA,"narrative",NA,NA,NA
"CG0081","CDISC","SDTM-IG","3.2,3.3,3.4","Medium","--STAT = 'NOT DONE'",NA,NA,"narrative",NA,NA,NA
"CG0097","CDISC","SDTM-IG","3.2,3.3,3.4","Medium","CMTRT = collected on CRF",NA,NA,"narrative",NA,NA,NA
"CG0098","CDISC","SDTM-IG","3.2,3.3,3.4","Medium","CMTRT = collected medication name only",NA,NA,"narrative",NA,NA,NA
"CG0100","CDISC","SDTM-IG","3.2,3.3,3.4","Medium","ECDOSE > 0",NA,NA,"narrative",NA,NA,NA
"CG0101","CDISC","SDTM-IG","3.2,3.3,3.4","Medium","ECDOSE = null or > 0",NA,NA,"narrative",NA,NA,NA
"CG0103","CDISC","SDTM-IG","3.2,3.3,3.4","Medium","EXDOSU = protocol-specified unit",NA,NA,"narrative",NA,NA,NA
"CG0104","CDISC","SDTM-IG","3.2,3.3,3.4","Medium","EXTRT = protocol-specified treatment",NA,NA,"narrative",NA,NA,NA
"CG0109","CDISC","SDTM-IG","3.2","Medium","DM.ACTARMCD in ('SCRNFAIL', 'NOTASSGN', 'NOTTRT')",NA,NA,"narrative",NA,NA,NA
"CG0112","CDISC","SDTM-IG","3.2,3.3,3.4","Medium","--DOSTXT value is non-numeric",NA,NA,"narrative",NA,NA,NA
"CG0117","CDISC","SDTM-IG","3.2","Medium","ACTARM in ('Screen Failure', 'Not Assigned', 'Not Treated', 'Unplanned Treatment')",NA,NA,"narrative",NA,NA,NA
"CG0120","CDISC","SDTM-IG","3.2","Medium","ARM in ('Screen Failure', 'Not Assigned')",NA,NA,"narrative",NA,NA,NA
"CG0124","CDISC","SDTM-IG","3.2","Medium","ACTARMCD in ('SCRNFAIL', 'NOTASSGN', 'NOTTRT', 'UNPLAN')",NA,NA,"narrative",NA,NA,NA
"CG0128","CDISC","SDTM-IG","3.2","Medium","ARMCD in ('SCRNFAIL', 'NOTASSGN')",NA,NA,"narrative",NA,NA,NA
"CG0133","CDISC","SDTM-IG","3.2,3.3,3.4","Medium","DTHFL = 'Y'",NA,NA,"narrative",NA,NA,NA
"CG0138","CDISC","SDTM-IG","3.2","Medium","Population flags in SUPPDM",NA,NA,"narrative",NA,NA,NA
"CG0140","CDISC","SDTM-IG","3.2,3.3,3.4","Medium","RACE = 'MULTIPLE'",NA,NA,"narrative",NA,NA,NA
"CG0141","CDISC","SDTM-IG","3.2","Medium","RFENDTC = null",NA,NA,"narrative",NA,NA,NA
"CG0143","CDISC","SDTM-IG","3.2,3.3,3.4","Medium","RFICDTC = earliest DS.DSSTDTC",NA,NA,"narrative",NA,NA,NA
"CG0145","CDISC","SDTM-IG","3.2","Medium","RFSTDTC = null",NA,NA,"narrative",NA,NA,NA
"CG0147","CDISC","SDTM-IG","3.2,3.3,3.4","Medium","RFXENDTC = latest value of EX.EXSTDTC or EX.EXENDTC",NA,NA,"narrative",NA,NA,"Requires max/latest-across-related-rows semantic (not supported by current ordinal by_key op)"
"CG0148","CDISC","SDTM-IG","3.2,3.3,3.4","Medium","RFXSTDTC = earliest EX.EXSTDTC",NA,NA,"narrative",NA,NA,"Requires max/latest-across-related-rows semantic (not supported by current ordinal by_key op)"
"CG0155","CDISC","SDTM-IG","3.2,3.3","Medium","Value length = 4 characters beginning with 'AP' and ending with 2 character SDTM domain",NA,NA,"narrative",NA,NA,NA
"CG0156","CDISC","SDTM-IG","3.2,3.3,3.4","Medium","APID in POOLDEF.POOLID",NA,NA,"narrative",NA,NA,"AP-scoped (Associated Persons, SDTMIG-AP); deferred"
"CG0157","CDISC","SDTM-IG","3.2,3.3,3.4","Medium","RSUBJID in DM.USUBJID",NA,NA,"narrative",NA,NA,"AP-scoped (Associated Persons, SDTMIG-AP); deferred"
"CG0158","CDISC","SDTM-IG","3.2,3.3,3.4","Medium","RSUBJID in POOLDEF.POOLID",NA,NA,"narrative",NA,NA,"AP-scoped (Associated Persons, SDTMIG-AP); deferred"
"CG0159","CDISC","SDTM-IG","3.2,3.3,3.4","Medium","RSUBJID = null",NA,NA,"narrative",NA,NA,NA
"CG0160","CDISC","SDTM-IG","3.2,3.3,3.4","Medium","Describes relationship of associated person to study subject or pool",NA,NA,"narrative",NA,NA,NA
"CG0161","CDISC","SDTM-IG","3.2,3.3,3.4","Medium","Describes relationship of associated person to device identified in RDEVID",NA,NA,"narrative",NA,NA,NA
"CG0162","CDISC","SDTM-IG","3.2,3.3,3.4","Medium","Describes relationship of associated person to study identified in STUDYID",NA,NA,"narrative",NA,NA,NA
"CG0167","CDISC","SDTM-IG","3.2,3.3,3.4","Medium","Comments are unsolicited, free-text and voluntary",NA,NA,"narrative",NA,NA,NA
"CG0169","CDISC","SDTM-IG","3.2,3.3,3.4","Medium","COVALn not present in dataset",NA,NA,"narrative",NA,NA,NA
"CG0172","CDISC","SDTM-IG","3.2,3.3,3.4","Medium","SSDTC >= all DS.DSSTDTC",NA,NA,"narrative",NA,NA,NA
"CG0173","CDISC","SDTM-IG","3.2,3.3,3.4","Medium","The name of the variable is used as the value of FATESTCD.",NA,NA,"narrative",NA,NA,NA
"CG0174","CDISC","SDTM-IG","3.2,3.3,3.4","Medium","FAOBJ in (--TERM, --TRT, --DECOD)",NA,NA,"narrative",NA,NA,NA
"CG0180","CDISC","SDTM-IG","3.2,3.3,3.4","Medium","LBORNRLO = null",NA,NA,"narrative",NA,NA,NA
"CG0181","CDISC","SDTM-IG","3.2,3.3,3.4","Medium","LBORNRHI = null",NA,NA,"narrative",NA,NA,NA
"CG0182","CDISC","SDTM-IG","3.2,3.3,3.4","Medium","LBSTNRLO = null",NA,NA,"narrative",NA,NA,NA
"CG0183","CDISC","SDTM-IG","3.2,3.3,3.4","Medium","LBSTNRHI = null",NA,NA,"narrative",NA,NA,NA
"CG0184","CDISC","SDTM-IG","3.2,3.3,3.4","Medium","LBSTNRC = null",NA,NA,"narrative",NA,NA,NA
"CG0185","CDISC","SDTM-IG","3.2,3.3,3.4","Medium","LBTOXGR is a numeric value",NA,NA,"narrative",NA,NA,NA
"CG0186","CDISC","SDTM-IG","3.2,3.3,3.4","Medium","LBORNRLO is expressed using the units in LBORRESU",NA,NA,"narrative",NA,NA,NA
"CG0187","CDISC","SDTM-IG","3.2,3.3,3.4","Medium","LBORNRHI is expressed using the units in LBORRESU",NA,NA,"narrative",NA,NA,NA
"CG0188","CDISC","SDTM-IG","3.2,3.3,3.4","Medium","LBSTNRLO  is expressed using the units in LBSTRESU",NA,NA,"narrative",NA,NA,NA
"CG0189","CDISC","SDTM-IG","3.2,3.3,3.4","Medium","LBSTNRHI is expressed using the units in LBSTRESU",NA,NA,"narrative",NA,NA,NA
"CG0190","CDISC","SDTM-IG","3.2,3.3,3.4","Medium","LBSTNRC  is expressed using the units in LBSTRESU",NA,NA,"narrative",NA,NA,NA
"CG0191","CDISC","SDTM-IG","3.2,3.3,3.4","Medium","MB dataset present in study",NA,NA,"narrative",NA,NA,NA
"CG0192","CDISC","SDTM-IG","3.2","Medium","MBTESTCD = 'ORGANISM'",NA,NA,"narrative",NA,NA,NA
"CG0196","CDISC","SDTM-IG","3.2,3.3,3.4","Medium","PEORRES = 'NORMAL'",NA,NA,"narrative",NA,NA,NA
"CG0197","CDISC","SDTM-IG","3.2,3.3,3.4","Medium","PESTRESC = PEORRES OR a dictionary coded preferred term",NA,NA,"narrative",NA,NA,NA
"CG0198","CDISC","SDTM-IG","3.2,3.3,3.4","Medium","Relationships represented in RELREC are collected relationships",NA,NA,"narrative",NA,NA,NA
"CG0200","CDISC","SDTM-IG","3.2,3.3,3.4","Medium","Within a subject each unique RELID is present on multiple RELREC records",NA,NA,"narrative",NA,NA,NA
"CG0205","CDISC","SDTM-IG","3.2,3.3,3.4","Medium","Suppqual dataset names <= 8 characters",NA,NA,"narrative",NA,NA,NA
"CG0207","CDISC","SDTM-IG","3.2,3.3,3.4","Medium","SEENDTC = SESTDTC of next ELEMENT",NA,NA,"narrative",NA,NA,NA
"CG0214","CDISC","SDTM-IG","3.2,3.3","Medium","VISITNUM not in TV.VISITNUM",NA,NA,"narrative",NA,NA,NA
"CG0217","CDISC","SDTM-IG","3.2,3.3,3.4","Medium","TAETORD = SE.TAETORD",NA,NA,"narrative",NA,NA,NA
"CG0218","CDISC","SDTM-IG","3.2,3.3,3.4","Medium","EPOCH = SE.EPOCH",NA,NA,"narrative",NA,NA,NA
"CG0219","CDISC","SDTM-IG","3.2,3.3,3.4","Medium","At least one timing variable present in dataset",NA,NA,"narrative",NA,NA,NA
"CG0221","CDISC","SDTM-IG","3.2,3.3,3.4","Medium","--STDY = null",NA,NA,"narrative",NA,NA,NA
"CG0223","CDISC","SDTM-IG","3.2,3.3,3.4","Medium","--ENDY = null",NA,NA,"narrative",NA,NA,NA
"CG0225","CDISC","SDTM-IG","3.2,3.3,3.4","Medium","VISITDY = null",NA,NA,"narrative",NA,NA,NA
"CG0232","CDISC","SDTM-IG","3.2,3.3,3.4","Medium","--STRTPT in ('BEFORE', 'COINCIDENT', 'UNKNOWN')",NA,NA,"narrative",NA,NA,NA
"CG0233","CDISC","SDTM-IG","3.2,3.3,3.4","Medium","--STRTPT in ('BEFORE', 'COINCIDENT', 'AFTER', 'UNKNOWN')",NA,NA,"narrative",NA,NA,NA
"CG0234","CDISC","SDTM-IG","3.2,3.3,3.4","Medium","--ENRTPT in ('BEFORE', 'COINCIDENT', 'ONGOING', 'UNKNOWN')",NA,NA,"narrative",NA,NA,NA
"CG0235","CDISC","SDTM-IG","3.2,3.3,3.4","Medium","--ENRTPT in ('BEFORE', 'COINCIDENT', 'ONGOING', 'AFTER', 'UNKNOWN')",NA,NA,"narrative",NA,NA,NA
"CG0236","CDISC","SDTM-IG","3.2,3.3,3.4","Medium","--DTC is date/time of specimen collection or observation, not date/time of recording/acquisition",NA,NA,"narrative",NA,NA,NA
"CG0237","CDISC","SDTM-IG","3.2,3.3,3.4","Medium","--DTC is date/time of recording/data acquisition",NA,NA,"narrative",NA,NA,NA
"CG0238","CDISC","SDTM-IG","3.2,3.3,3.4","Medium","--ORRES in ISO 8601 date format",NA,NA,"narrative",NA,NA,NA
"CG0240","CDISC","SDTM-IG","3.2,3.3,3.4","Medium","--TPT and --TPTNUM have a one-to-one relationship",NA,NA,"narrative",NA,NA,NA
"CG0241","CDISC","SDTM-IG","3.2,3.3,3.4","Medium","--ELTM is the same value across records with the same values of DOMAIN, VISITNUM, --TPTREF, and --TPTNUM",NA,NA,"narrative",NA,NA,NA
"CG0244","CDISC","SDTM-IG","3.2","Medium","ARM not in ('Screen Failure', 'Not Assigned', 'Unplanned Treatment', 'Not Treated')",NA,NA,"narrative",NA,NA,NA
"CG0247","CDISC","SDTM-IG","3.2,3.3,3.4","Medium","TAETORD is unique within an ARM",NA,NA,"narrative",NA,NA,NA
"CG0248","CDISC","SDTM-IG","3.2,3.3,3.4","Medium","TAETORD is an integer",NA,NA,"narrative",NA,NA,NA
"CG0249","CDISC","SDTM-IG","3.2,3.3,3.4","Medium","TATRANS = null",NA,NA,"narrative",NA,NA,NA
"CG0250","CDISC","SDTM-IG","3.2,3.3,3.4","Medium","Each value of EPOCH is not associated with more than one conceptual trial period",NA,NA,"narrative",NA,NA,NA
"CG0254","CDISC","SDTM-IG","3.2,3.3,3.4","Medium","TIVERS present in dataset",NA,NA,"narrative",NA,NA,NA
"CG0255","CDISC","SDTM-IG","3.2,3.3,3.4","Medium","IETESTCD unique within TIVERS",NA,NA,"narrative",NA,NA,NA
"CG0256","CDISC","SDTM-IG","3.2,3.3,3.4","Medium","IETESTCD unique in dataset",NA,NA,"narrative",NA,NA,NA
"CG0262","CDISC","SDTM-IG","3.2,3.3,3.4","Medium","TSVALn ^= null",NA,NA,"narrative",NA,NA,NA
"CG0265","CDISC","SDTM-IG","3.2,3.3,3.4","Medium","TSVALCD and TSVAL have a one-to-one relationship.",NA,NA,"narrative",NA,NA,NA
"CG0268","CDISC","SDTM-IG","3.2,3.3,3.4","Medium","TSSEQ is unique for each distinct value of TSPARMCD",NA,NA,"narrative",NA,NA,NA
"CG0270","CDISC","SDTM-IG","3.2,3.3,3.4","Medium","TSVAL conforms to ISO 8601",NA,NA,"narrative",NA,NA,NA
"CG0272","CDISC","SDTM-IG","3.2,3.3","Medium","TSVAL = null or 'HEALTHY SUBJECTS'",NA,NA,"narrative",NA,NA,NA
"CG0280","CDISC","SDTM-IG","3.2,3.3","Medium","TSVAL > 0 and TSVAL <= 1",NA,NA,"narrative",NA,NA,NA
"CG0281","CDISC","SDTM-IG","3.2,3.3","Medium","TSPARMCD = RANDQT record is present",NA,NA,"narrative",NA,NA,NA
"CG0283","CDISC","SDTM-IG","3.2,3.3","Medium","TSVAL conforms to ISO 8601 date",NA,NA,"narrative",NA,NA,NA
"CG0284","CDISC","SDTM-IG","3.2,3.3","Medium","TSVAL is integer and > 0",NA,NA,"narrative",NA,NA,NA
"CG0285","CDISC","SDTM-IG","3.2,3.3","Medium","TSVAL conforms to ISO 8601 date",NA,NA,"narrative",NA,NA,NA
"CG0286","CDISC","SDTM-IG","3.2,3.3","Medium","TSVAL conforms to ISO 8601 date",NA,NA,"narrative",NA,NA,NA
"CG0287","CDISC","SDTM-IG","3.2,3.3","High","A set of records exist with at least one record with TSPARMCD equal to each of the required values in the list of Trial Summary Codes in Appendix C1",NA,NA,"narrative",NA,NA,NA
"CG0288","CDISC","SDTM-IG","3.2,3.3,3.4","Medium","TSVALCD = valid code in the version identified in TSVCDVER",NA,NA,"narrative",NA,NA,NA
"CG0289","CDISC","SDTM-IG","3.2,3.3,3.4","Medium","TSVCDVER = valid published version (date)",NA,NA,"narrative",NA,NA,NA
"CG0291","CDISC","SDTM-IG","3.2,3.3,3.4","Low","TSVAL not populated with values or synonyms of values in the ISO 21090 null flavor codelist (or other terms that can be represented as null flavors)",NA,NA,"narrative",NA,NA,NA
"CG0295","CDISC","SDTM-IG","3.2,3.3,3.4","Medium","ARMCD = null",NA,NA,"narrative",NA,NA,NA
"CG0296","CDISC","SDTM-IG","3.2,3.3,3.4","Medium","ARM = null",NA,NA,"narrative",NA,NA,NA
"CG0298","CDISC","SDTM-IG","3.2,3.3,3.4","Medium","VISIT is described in protocol",NA,NA,"narrative",NA,NA,NA
"CG0303","CDISC","SDTM-IG","3.2","Medium","Variable Label = IG Label",NA,NA,"narrative",NA,NA,NA
"CG0308","CDISC","SDTM-IG","3.2,3.3,3.4","Medium","DOMAIN value length = 2",NA,NA,"narrative",NA,NA,NA
"CG0309","CDISC","SDTM-IG","3.2,3.3,3.4","Medium","DOMAIN value length = 4",NA,NA,"narrative",NA,NA,NA
"CG0312","CDISC","SDTM-IG","3.2,3.3,3.4","Medium","DOMAIN not in reserved or modeled standard",NA,NA,"narrative",NA,NA,NA
"CG0313","CDISC","SDTM-IG","3.2","Medium","STUDYID, USUBJID or POOLID, DOMAIN, and --SEQ exist",NA,NA,"narrative",NA,NA,NA
"CG0314","CDISC","SDTM-IG","3.2,3.3,3.4","Medium","Value of SUPP--.QNAM ^= any variable name defined in the corresponding SDTM version",NA,NA,"narrative",NA,NA,NA
"CG0318","CDISC","SDTM-IG","3.2,3.3,3.4","Medium","PC dataset present in study",NA,NA,"narrative",NA,NA,NA
"CG0320","CDISC","SDTM-IG","3.2,3.3,3.4","Medium","--TESTCD present in custom findings dataset",NA,NA,"narrative",NA,NA,NA
"CG0321","CDISC","SDTM-IG","3.2,3.3,3.4","Medium","Custom domain is based on one of the observation classes",NA,NA,"narrative",NA,NA,NA
"CG0322","CDISC","SDTM-IG","3.2,3.3,3.4","Medium","ELEMENT value does not refer to any specific ARM",NA,NA,"narrative",NA,NA,NA
"CG0323","CDISC","SDTM-IG","3.2,3.3,3.4","Medium","ELEMENT value does not refer to any specific EPOCH",NA,NA,"narrative",NA,NA,NA
"CG0324","CDISC","SDTM-IG","3.2,3.3,3.4","Medium","TEENRL value does not refer to any specific ARM",NA,NA,"narrative",NA,NA,NA
"CG0325","CDISC","SDTM-IG","3.2,3.3,3.4","Medium","The combination of ELEMENT, TESTRL, TEENRL, and TEDUR is unique for each ETCD",NA,NA,"narrative",NA,NA,NA
"CG0330","CDISC","SDTM-IG","3.2,3.3","Medium","Variables are ordered with Identifiers first, followed by the Topic, Qualifier, and Timing variables. Within each role, variables are ordered as shown in SDTM: Tables 2.2.1, 2.2.2, 2.2.3, 2.2.3.1, 2.2.4, and 2.2.5",NA,NA,"narrative",NA,NA,NA
"CG0332","CDISC","SDTM-IG","3.2,3.3,3.4","High","The first two characters of the dataset name must equal a domain that is present in the study",NA,NA,"narrative",NA,NA,NA
"CG0333","CDISC","SDTM-IG","3.2,3.3,3.4","Medium","The characters of the dataset name after 'FA' equal a domain that present in the study",NA,NA,"narrative",NA,NA,NA
"CG0334","CDISC","SDTM-IG","3.2,3.3,3.4","Medium","Value of RDOMAIN equals characters 5 and 6 of the dataset name",NA,NA,"narrative",NA,NA,NA
"CG0336","CDISC","SDTM-IG","3.2,3.3,3.4","Medium","--CAT ^= Domain Name",NA,NA,"narrative",NA,NA,NA
"CG0341","CDISC","SDTM-IG","3.2,3.3,3.4","Medium","--TESTCD ^= 'OTHER'",NA,NA,"narrative",NA,NA,NA
"CG0342","CDISC","SDTM-IG","3.2,3.3,3.4","Medium","--TRT ^= 'OTHER'",NA,NA,"narrative",NA,NA,NA
"CG0343","CDISC","SDTM-IG","3.2,3.3,3.4","Medium","--TERM ^= 'OTHER'",NA,NA,"narrative",NA,NA,NA
"CG0344","CDISC","SDTM-IG","3.2,3.3,3.4","Medium","--TESTCD ^= 'MULTIPLE'",NA,NA,"narrative",NA,NA,NA
"CG0345","CDISC","SDTM-IG","3.2,3.3,3.4","Medium","--TRT ^= 'MULTIPLE'",NA,NA,"narrative",NA,NA,NA
"CG0346","CDISC","SDTM-IG","3.2,3.3,3.4","Medium","--TERM ^= 'MULTIPLE'",NA,NA,"narrative",NA,NA,NA
"CG0347","CDISC","SDTM-IG","3.2,3.3,3.4","Medium","--ORRES ^ = 'MULTIPLE'",NA,NA,"narrative",NA,NA,NA
"CG0349","CDISC","SDTM-IG","3.2,3.3,3.4","Medium","First 2 characters of the Variable Name = the 2-character domain code",NA,NA,"narrative",NA,NA,NA
"CG0350","CDISC","SDTM-IG","3.2,3.3,3.4","Medium","--SCAT ^= Domain Name",NA,NA,"narrative",NA,NA,NA
"CG0351","CDISC","SDTM-IG","3.2,3.3,3.4","Medium","Variables not in Model List of Allowed Variables for Observation Class are in SUPPQUAL",NA,NA,"narrative",NA,NA,NA
"CG0359","CDISC","SDTM-IG","3.2,3.3,3.4","Medium","Variable labels are in title case",NA,NA,"narrative",NA,NA,NA
"CG0365","CDISC","SDTM-IG","3.2,3.3,3.4","Medium","RDEVID = null",NA,NA,"narrative",NA,NA,"AP-scoped; defer until AP class in taxonomy (similar to CG0156/157/158)"
"CG0366","CDISC","SDTM-IG","3.2,3.3,3.4","Medium","RSUBJID = null",NA,NA,"narrative",NA,NA,"AP-scoped; defer until AP class in taxonomy (similar to CG0156/157/158)"
"CG0367","CDISC","SDTM-IG","3.2,3.3,3.4","Medium","RSUBJID = DM.USUBJID",NA,NA,"narrative",NA,NA,NA
"CG0368","CDISC","SDTM-IG","3.2,3.3,3.4","Medium","DM dataset present in study",NA,NA,"narrative",NA,NA,NA
"CG0369","CDISC","SDTM-IG","3.2,3.3,3.4","Medium","RDOMAIN is dataset in study",NA,NA,"narrative",NA,NA,NA
"CG0370","CDISC","SDTM-IG","3.2,3.3,3.4","Medium","IDVAR is variable in domain = RDOMAIN",NA,NA,"narrative",NA,NA,NA
"CG0371","CDISC","SDTM-IG","3.2,3.3,3.4","Medium","IDVARVAL = value of variable = IDVAR in domain = RDOMAIN",NA,NA,"narrative",NA,NA,NA
"CG0372","CDISC","SDTM-IG","3.2,3.3,3.4","Low","--TESTCD <= 8 chars and contains only letters, numbers, and underscores and can not start with a number",NA,NA,"narrative",NA,NA,NA
"CG0373","CDISC","SDTM-IG","3.2,3.3,3.4","Medium","Dataset present in study with DOMAIN = SUPP--.RDOMAIN",NA,NA,"narrative",NA,NA,NA
"CG0374","CDISC","SDTM-IG","3.2,3.3,3.4","Medium","Dataset present in study with DOMAIN = RELREC.RDOMAIN",NA,NA,"narrative",NA,NA,NA
"CG0376","CDISC","SDTM-IG","3.2,3.3,3.4","Medium","TDSTOFF = 0 or positive value in ISO 8601 Duration format",NA,NA,"narrative",NA,NA,NA
"CG0377","CDISC","SDTM-IG","3.2,3.3,3.4","Medium","--LLT = MedDRA lowest level TERM",NA,NA,"narrative",NA,NA,NA
"CG0378","CDISC","SDTM-IG","3.2,3.3,3.4","Medium","--LLTCD = MedDRA lowest level code",NA,NA,"narrative",NA,NA,NA
"CG0379","CDISC","SDTM-IG","3.2,3.3,3.4","Medium","--DECOD = MedDRA preferred TERM",NA,NA,"narrative",NA,NA,NA
"CG0380","CDISC","SDTM-IG","3.2,3.3,3.4","Medium","--PTCD = MedDRA preferred TERM code",NA,NA,"narrative",NA,NA,NA
"CG0381","CDISC","SDTM-IG","3.2,3.3,3.4","Medium","--HLT = MedDRA high level TERM",NA,NA,"narrative",NA,NA,NA
"CG0382","CDISC","SDTM-IG","3.2,3.3,3.4","Medium","--HLTCD = MedDRA high level TERM code",NA,NA,"narrative",NA,NA,NA
"CG0383","CDISC","SDTM-IG","3.2,3.3,3.4","Medium","--HLGT = MedDRA high level group TERM",NA,NA,"narrative",NA,NA,NA
"CG0384","CDISC","SDTM-IG","3.2,3.3,3.4","Medium","--HLGTCD = MedDRA high level group TERM code",NA,NA,"narrative",NA,NA,NA
"CG0385","CDISC","SDTM-IG","3.2,3.3,3.4","Medium","--BODSYS = MedDRA system organ class",NA,NA,"narrative",NA,NA,NA
"CG0386","CDISC","SDTM-IG","3.2,3.3,3.4","Medium","--BDSYCD = MedDRA system organ class code",NA,NA,"narrative",NA,NA,NA
"CG0387","CDISC","SDTM-IG","3.2,3.3,3.4","Medium","--SER in ('Y','N')",NA,NA,"narrative",NA,NA,NA
"CG0388","CDISC","SDTM-IG","3.2,3.3,3.4","Medium","--SCAN in ('Y','N')",NA,NA,"narrative",NA,NA,NA
"CG0389","CDISC","SDTM-IG","3.2,3.3,3.4","Medium","--SCONG in ('Y','N')",NA,NA,"narrative",NA,NA,NA
"CG0390","CDISC","SDTM-IG","3.2,3.3,3.4","Medium","--SDISAB in ('Y','N')",NA,NA,"narrative",NA,NA,NA
"CG0391","CDISC","SDTM-IG","3.2,3.3,3.4","Medium","--SDTH in ('Y','N')",NA,NA,"narrative",NA,NA,NA
"CG0392","CDISC","SDTM-IG","3.2,3.3,3.4","Medium","--SHOSP in ('Y','N')",NA,NA,"narrative",NA,NA,NA
"CG0393","CDISC","SDTM-IG","3.2,3.3,3.4","Medium","--SLIFE in ('Y','N')",NA,NA,"narrative",NA,NA,NA
"CG0394","CDISC","SDTM-IG","3.2,3.3,3.4","Medium","--SOD in ('Y','N')",NA,NA,"narrative",NA,NA,NA
"CG0395","CDISC","SDTM-IG","3.2,3.3,3.4","Medium","--SMIE in ('Y','N')",NA,NA,"narrative",NA,NA,NA
"CG0396","CDISC","SDTM-IG","3.2,3.3,3.4","Medium","--CONTRT in ('Y','N')",NA,NA,"narrative",NA,NA,NA
"CG0398","CDISC","SDTM-IG","3.2","Medium","At most one record per subject per epoch",NA,NA,"narrative",NA,NA,NA
"CG0399","CDISC","SDTM-IG","3.2,3.3,3.4","Medium","--ULOQ is expressed using the units in --STRESU",NA,NA,"narrative",NA,NA,NA
"CG0400","CDISC","SDTM-IG","3.2,3.3,3.4","Medium","--LOINC = valid code in the version of the LOINC dictionary specified in define.xml",NA,NA,"narrative",NA,NA,NA
"CG0404","CDISC","SDTM-IG","3.2,3.3,3.4","Medium","--STAT present in dataset",NA,NA,"narrative",NA,NA,NA
"CG0406","CDISC","SDTM-IG","3.2,3.3,3.4","Medium","--TEST length <= 40",NA,NA,"narrative",NA,NA,NA
"CG0407","CDISC","SDTM-IG","3.2,3.3,3.4","Medium","EX present in study",NA,NA,"narrative",NA,NA,NA
"CG0408","CDISC","SDTM-IG","3.2,3.3,3.4","Medium","Dataset > 0 records",NA,NA,"narrative",NA,NA,NA
"CG0409","CDISC","SDTM-IG","3.2,3.3,3.4","Medium","STUDYID = DM.STUDYID",NA,NA,"narrative",NA,NA,NA
"CG0411","CDISC","SDTM-IG","3.2,3.3,3.4","Medium","IDVAR, IDVARVAL, and QNAM a unique combination per parent subject record",NA,NA,"narrative",NA,NA,NA
"CG0412","CDISC","SDTM-IG","3.2","Medium","Subject records > 0",NA,NA,"narrative",NA,NA,NA
"CG0413","CDISC","SDTM-IG","3.2,3.3,3.4","Medium","Dataset name begins with DOMAIN value",NA,NA,"narrative",NA,NA,NA
"CG0414","CDISC","SDTM-IG","3.2,3.3,3.4","Medium","ETCD = TE.ETCD",NA,NA,"narrative",NA,NA,NA
"CG0415","CDISC","SDTM-IG","3.2,3.3,3.4","Medium","ARMCD is a valid planned arm code",NA,NA,"narrative",NA,NA,NA
"CG0417","CDISC","SDTM-IG","3.2,3.3,3.4","Medium","QNAM value length <=8 and cannot start with a number and cannot contain characters other than letters in upper case, numbers, or underscores",NA,NA,"narrative",NA,NA,NA
"CG0418","CDISC","SDTM-IG","3.2,3.3,3.4","Medium","TAETORD order of elements match order in TA within ARM of the Subject",NA,NA,"narrative",NA,NA,NA
"CG0419","CDISC","SDTM-IG","3.2,3.3,3.4","Medium","RELTYPE = null",NA,NA,"narrative",NA,NA,NA
"CG0431","CDISC","SDTM-IG","3.2,3.3,3.4","Medium","Variable value ^= null",NA,NA,"narrative",NA,NA,NA
"CG0436","CDISC","SDTM-IG","3.2,3.3,3.4","Medium","--SOC = MedDRA primary system organ class",NA,NA,"narrative",NA,NA,NA
"CG0437","CDISC","SDTM-IG","3.2,3.3,3.4","Medium","--SOCCD = MedDRA primary system organ class code",NA,NA,"narrative",NA,NA,NA
"CG0438","CDISC","SDTM-IG","3.2,3.3","Medium","TSVAL conforms to ISO 8601 time period",NA,NA,"narrative",NA,NA,NA
"CG0439","CDISC","SDTM-IG","3.2,3.3","Medium","TSVAL conforms to ISO 8601 time period",NA,NA,"narrative",NA,NA,NA
"CG0440","CDISC","SDTM-IG","3.2,3.3","Medium","TSVAL is integer and > 0",NA,NA,"narrative",NA,NA,NA
"CG0442","CDISC","SDTM-IG","3.2,3.3","Medium","TSVAL is a valid preferred term from FDA Substance Registration System (SRS)",NA,NA,"narrative",NA,NA,NA
"CG0443","CDISC","SDTM-IG","3.2,3.3","Medium","TSVALCD is a valid unique ingredient identifier from FDA Substance Registration System (SRS)",NA,NA,"narrative",NA,NA,NA
"CG0445","CDISC","SDTM-IG","3.2,3.3","Medium","TSVAL is a valid preferred term from FDA Substance Registration System (SRS)",NA,NA,"narrative",NA,NA,NA
"CG0446","CDISC","SDTM-IG","3.2,3.3","Medium","TSVALCD is a valid unique ingredient identifier from FDA Substance Registration System (SRS)",NA,NA,"narrative",NA,NA,NA
"CG0448","CDISC","SDTM-IG","3.2,3.3","Medium","TSVAL is a valid term from SNOMED CT",NA,NA,"narrative",NA,NA,NA
"CG0449","CDISC","SDTM-IG","3.2,3.3","Medium","TSVALCD is a valid concept identifier from SNOMED CT",NA,NA,"narrative",NA,NA,NA
"CG0450","CDISC","SDTM-IG","3.2,3.3","Medium","TSVAL is a valid preferred term from FDA Substance Registration System (SRS)",NA,NA,"narrative",NA,NA,NA
"CG0451","CDISC","SDTM-IG","3.2,3.3","Medium","TSVALCD is a valid unique ingredient identifier from FDA Substance Registration System (SRS)",NA,NA,"narrative",NA,NA,NA
"CG0453","CDISC","SDTM-IG","3.2,3.3","Medium","TSVAL is a valid term from NDF-RT",NA,NA,"narrative",NA,NA,NA
"CG0454","CDISC","SDTM-IG","3.2,3.3","Medium","TSVALCD is a valid code from NDF-RT",NA,NA,"narrative",NA,NA,NA
"CG0457","CDISC","SDTM-IG","3.2,3.3","Medium","TSVAL is integer and > 0",NA,NA,"narrative",NA,NA,NA
"CG0459","CDISC","SDTM-IG","3.2,3.3","Medium","TSVALNF = null",NA,NA,"narrative",NA,NA,NA
"CG0460","CDISC","SDTM-IG","3.2,3.3,3.4","Medium","--HLT on path to MedDRA primary system organ class",NA,NA,"narrative",NA,NA,NA
"CG0461","CDISC","SDTM-IG","3.2,3.3,3.4","Medium","--HLGT on path to MedDRA primary system organ class",NA,NA,"narrative",NA,NA,NA
"CG0463","CDISC","SDTM-IG","3.2,3.3,3.4","Medium","--TRT present in custom interventions dataset",NA,NA,"narrative",NA,NA,NA
"CG0464","CDISC","SDTM-IG","3.2,3.3,3.4","Medium","--TERM present in custom events dataset",NA,NA,"narrative",NA,NA,NA
"CG0466","CDISC","SDTM-IG","3.2,3.3,3.4","Medium","--LLOQ is expressed using the units in --STRESU",NA,NA,"narrative",NA,NA,NA
"CG0467","CDISC","SDTM-IG","3.2,3.3,3.4","Medium","--STDTC not present",NA,NA,"narrative",NA,NA,NA
"CG0501","CDISC","SDTM-IG","3.3,3.4","Medium","TM dataset present in study",NA,NA,"narrative",NA,NA,NA
"CG0502","CDISC","SDTM-IG","3.3,3.4","Medium","TM dataset present in study",NA,NA,"narrative",NA,NA,NA
"CG0513","CDISC","SDTM-IG","3.3,3.4","Medium","ARMNRS^=null",NA,NA,"narrative",NA,NA,NA
"CG0515","CDISC","SDTM-IG","3.3,3.4","Medium","ARMNRS^=null",NA,NA,"narrative",NA,NA,NA
"CG0517","CDISC","SDTM-IG","3.3,3.4","Medium","ARMNRS^=null",NA,NA,"narrative",NA,NA,NA
"CG0519","CDISC","SDTM-IG","3.3,3.4","Medium","ARMNRS^=null",NA,NA,"narrative",NA,NA,NA
"CG0520","CDISC","SDTM-IG","3.3,3.4","Medium","ARMNRS = null",NA,NA,"narrative",NA,NA,NA
"CG0523","CDISC","SDTM-IG","3.3,3.4","Medium","ARMCD = null",NA,NA,"narrative",NA,NA,NA
"CG0524","CDISC","SDTM-IG","3.3,3.4","Medium","ACTARMCD = null",NA,NA,"narrative",NA,NA,NA
"CG0525","CDISC","SDTM-IG","3.3,3.4","Medium","RACE = 'OTHER' or RACE = 'MULTIPLE'",NA,NA,"narrative",NA,NA,NA
"CG0526","CDISC","SDTM-IG","3.3,3.4","Medium","RACE = 'UNKNOWN'",NA,NA,"narrative",NA,NA,NA
"CG0527","CDISC","SDTM-IG","3.3,3.4","Medium","RACE = 'MULTIPLE'",NA,NA,"narrative",NA,NA,NA
"CG0528","CDISC","SDTM-IG","3.3,3.4","Medium","ADSL Population flags not in SUPPDM",NA,NA,"narrative",NA,NA,NA
"CG0531","CDISC","SDTM-IG","3.3,3.4","Medium","Multiple SUPPDM.QNAM records exist for the subject",NA,NA,"narrative",NA,NA,NA
"CG0534","CDISC","SDTM-IG","3.3,3.4","Medium","RFSTDTC = null",NA,NA,"narrative",NA,NA,NA
"CG0535","CDISC","SDTM-IG","3.3,3.4","High","DSSCAT must be present",NA,NA,"narrative",NA,NA,NA
"CG0536","CDISC","SDTM-IG","3.3,3.4","Medium","At most one record per subject per DSSCAT per epoch, including null values of DSSCAT",NA,NA,"narrative",NA,NA,NA
"CG0537","CDISC","SDTM-IG","3.3,3.4","Medium","At most one record per subject per epoch",NA,NA,"narrative",NA,NA,NA
"CG0538","CDISC","SDTM-IG","3.3,3.4","Medium","No more than 1 record per subject has DSSCAT = 'STUDY PARTICIPATION'",NA,NA,"narrative",NA,NA,NA
"CG0539","CDISC","SDTM-IG","3.3,3.4","Medium","No more than 1 record per subject has DSSCAT = 'STUDY TREATMENT'",NA,NA,"narrative",NA,NA,NA
"CG0540","CDISC","SDTM-IG","3.3,3.4","Medium","DS records present for subject",NA,NA,"narrative",NA,NA,NA
"CG0541","CDISC","SDTM-IG","3.3,3.4","High","Value must be 'Y' or null",NA,NA,"narrative",NA,NA,NA
"CG0545","CDISC","SDTM-IG","3.3,3.4","Medium","MIDSTYPE is unique per subject",NA,NA,"narrative",NA,NA,NA
"CG0546","CDISC","SDTM-IG","3.3,3.4","Medium","MIDS is suffixed with a sequence number in consistent chronological order",NA,NA,"narrative",NA,NA,NA
"CG0548","CDISC","SDTM-IG","3.3,3.4","Medium","--ORREF in same units as --ORRES",NA,NA,"narrative",NA,NA,NA
"CG0551","CDISC","SDTM-IG","3.3,3.4","Medium","--STREFN in same units as --STRESN",NA,NA,"narrative",NA,NA,NA
"CG0554","CDISC","SDTM-IG","3.3,3.4","Medium","STUDYID, DOMAIN, and --SEQ exist and at least one of USUBJID, APID, SPDEVID, or POOLID",NA,NA,"narrative",NA,NA,NA
"CG0555","CDISC","SDTM-IG","3.3,3.4","Medium","Terminology is for non-normalized parameter (Codelist ""PKUNIT"")",NA,NA,"narrative",NA,NA,NA
"CG0556","CDISC","SDTM-IG","3.3,3.4","Medium","Terminology is for parameter normalized by dose amount",NA,NA,"narrative",NA,NA,NA
"CG0557","CDISC","SDTM-IG","3.3,3.4","Medium","Terminology is for parameter normalized by weight",NA,NA,"narrative",NA,NA,NA
"CG0558","CDISC","SDTM-IG","3.3,3.4","Medium","Terminology is for non-normalized parameter",NA,NA,"narrative",NA,NA,NA
"CG0559","CDISC","SDTM-IG","3.3,3.4","Medium","Terminology is for parameter normalized by dose amount",NA,NA,"narrative",NA,NA,NA
"CG0560","CDISC","SDTM-IG","3.3,3.4","Medium","Terminology is for parameter normalized by weight",NA,NA,"narrative",NA,NA,NA
"CG0562","CDISC","SDTM-IG","3.3,3.4","Medium","--REPNUM ^= null and unique per subject per test per the timing variables",NA,NA,"narrative",NA,NA,NA
"CG0563","CDISC","SDTM-IG","3.3,3.4","Medium","RSDRVFL = 'Y'",NA,NA,"narrative",NA,NA,NA
"CG0570","CDISC","SDTM-IG","3.3,3.4","Medium","ARM not in ('Screen Failure', 'Not Assigned', 'Unplanned Treatment', 'Not Treated')",NA,NA,"narrative",NA,NA,NA
"CG0571","CDISC","SDTM-IG","3.2,3.3","Medium","--TPT and --TPTNUM have a one-to-one relationship per unique values of VISITNUM",NA,NA,"narrative",NA,NA,NA
"CG0572","CDISC","SDTM-IG","3.2,3.3","Medium","--TPT and --TPTNUM have a one-to-one relationship per unique values of --TPTREF",NA,NA,"narrative",NA,NA,NA
"CG0573","CDISC","SDTM-IG","3.2,3.3","Medium","--TPT and --TPTNUM have a one-to-one relationship per unique combination of VISITNUM and –TPTREF values",NA,NA,"narrative",NA,NA,NA
"CG0601","CDISC","SDTM-IG","3.4","Medium","--OBJ = --TERM",NA,NA,"narrative",NA,NA,NA
"CG0602","CDISC","SDTM-IG","3.4","Medium","--OBJ = --TRT

",NA,NA,"narrative",NA,NA,NA
"CG0603","CDISC","SDTM-IG","3.4","Medium","--OBJ = --DECOD",NA,NA,"narrative",NA,NA,NA
"CG0604","CDISC","SDTM-IG","3.4","Medium","--OBJ = verbatim value",NA,NA,"narrative",NA,NA,NA
"CG0605","CDISC","SDTM-IG","3.4","Medium","--OBJ = coded value",NA,NA,"narrative",NA,NA,NA
"CG0607","CDISC","SDTM-IG","3.4","Medium","MBTEST = name of the organism or antigen",NA,NA,"narrative",NA,NA,NA
"CG0608","CDISC","SDTM-IG","3.4","Medium","MBTSTDTL='DETECTION'",NA,NA,"narrative",NA,NA,NA
"CG0609","CDISC","SDTM-IG","3.4","Medium","MBTESTCD='MCORGIDN'",NA,NA,"narrative",NA,NA,NA
"CG0610","CDISC","SDTM-IG","3.4","Medium","MBTEST = name of the organism or group of organisms",NA,NA,"narrative",NA,NA,NA
"CG0614","CDISC","SDTM-IG","3.4","Medium","MBTEST = name of the organism or antigen",NA,NA,"narrative",NA,NA,NA
"CG0615","CDISC","SDTM-IG","3.4","Medium","MBTSTDTL = 'DETECTION'",NA,NA,"narrative",NA,NA,NA
"CG0616","CDISC","SDTM-IG","3.4","Medium","MBTESTCD = 'MCORGIDN'",NA,NA,"narrative",NA,NA,NA
"CG0617","CDISC","SDTM-IG","3.4","Medium","MBTEST = name of the organism or group of organisms",NA,NA,"narrative",NA,NA,NA
"CG0619","CDISC","SDTM-IG","3.4","Medium","--SPCUFL = 'N' or null",NA,NA,"narrative",NA,NA,NA
"CG0620","CDISC","SDTM-IG","3.3,3.4","Medium","--SEQ is in a consistent chronological order",NA,NA,"narrative",NA,NA,NA
"CG0646","CDISC","SDTM-IG","3.4","Medium","SJ dataset not present",NA,NA,"narrative",NA,NA,NA
"CG0647","CDISC","SDTM-IG","3.4","Medium","TJ dataset not present",NA,NA,"narrative",NA,NA,NA
"CG0648","CDISC","SDTM-IG","3.4","Medium","TP dataset not present",NA,NA,"narrative",NA,NA,NA
"CG0649","CDISC","SDTM-IG","3.4","Medium","TSVALNF = null",NA,NA,"narrative",NA,NA,NA
"CG0650","CDISC","SDTM-IG","3.2,3.3,3.4","Medium","Split dataset names length > 4 and <= 6",NA,NA,"narrative",NA,NA,NA
"CG0651","CDISC","SDTM-IG","3.3,3.4","Medium","Variable present in dataset",NA,NA,"narrative",NA,NA,NA
"CG0653","CDISC","SDTM-IG","3.4","Medium","SVPRESP in (""Y"", null)",NA,NA,"narrative",NA,NA,NA
"CG0656","CDISC","SDTM-IG","3.4","Medium","VISITNUM not in TV.VISITNUM",NA,NA,"narrative",NA,NA,NA
"CG0662","CDISC","SDTM-IG","3.2","Medium","--SEQ is in consistent chronological order",NA,NA,"narrative",NA,NA,NA
"CG0663","CDISC","SDTM-IG","3.4","Medium","Value length = 4 characters beginning with 'AP' and ending with 2 character SDTM domain ",NA,NA,"narrative",NA,NA,NA
"CG0664","CDISC","SDTM-IG","3.4","Medium","Variables are ordered with Identifiers first, followed by the Topic, Qualifier, and Timing variables. Within each role, variables are ordered as shown in SDTM tables in sections 3.1.1, 3.1.2, 3.1.3, 3.1.3.1, 3.1.4, and 3.1.5",NA,NA,"narrative",NA,NA,NA
NA,NA,NA,NA,NA,NA,NA,NA,"narrative",NA,NA,NA
NA,NA,NA,NA,NA,NA,NA,NA,"narrative",NA,NA,NA
NA,NA,NA,NA,NA,NA,NA,NA,"narrative",NA,NA,NA
NA,NA,NA,NA,NA,NA,NA,NA,"narrative",NA,NA,NA
NA,NA,NA,NA,NA,NA,NA,NA,"narrative",NA,NA,NA
NA,NA,NA,NA,NA,NA,NA,NA,"narrative",NA,NA,NA
NA,NA,NA,NA,NA,NA,NA,NA,"narrative",NA,NA,NA
NA,NA,NA,NA,NA,NA,NA,NA,"narrative",NA,NA,NA
NA,NA,NA,NA,NA,NA,NA,NA,"narrative",NA,NA,NA
NA,NA,NA,NA,NA,NA,NA,NA,"narrative",NA,NA,NA
NA,NA,NA,NA,NA,NA,NA,NA,"narrative",NA,NA,NA
NA,NA,NA,NA,NA,NA,NA,NA,"narrative",NA,NA,NA
NA,NA,NA,NA,NA,NA,NA,NA,"narrative",NA,NA,NA
NA,NA,NA,NA,NA,NA,NA,NA,"narrative",NA,NA,NA
NA,NA,NA,NA,NA,NA,NA,NA,"narrative",NA,NA,NA
NA,NA,NA,NA,NA,NA,NA,NA,"narrative",NA,NA,NA
NA,NA,NA,NA,NA,NA,NA,NA,"narrative",NA,NA,NA
NA,NA,NA,NA,NA,NA,NA,NA,"narrative",NA,NA,NA
NA,NA,NA,NA,NA,NA,NA,NA,"narrative",NA,NA,NA
NA,NA,NA,NA,NA,NA,NA,NA,"narrative",NA,NA,NA
NA,NA,NA,NA,NA,NA,NA,NA,"narrative",NA,NA,NA
NA,NA,NA,NA,NA,NA,NA,NA,"narrative",NA,NA,NA
NA,NA,NA,NA,NA,NA,NA,NA,"narrative",NA,NA,NA
NA,NA,NA,NA,NA,NA,NA,NA,"narrative",NA,NA,NA
NA,NA,NA,NA,NA,NA,NA,NA,"narrative",NA,NA,NA
NA,NA,NA,NA,NA,NA,NA,NA,"narrative",NA,NA,NA
NA,NA,NA,NA,NA,NA,NA,NA,"narrative",NA,NA,NA
NA,NA,NA,NA,NA,NA,NA,NA,"narrative",NA,NA,NA
NA,NA,NA,NA,NA,NA,NA,NA,"narrative",NA,NA,NA
NA,NA,NA,NA,NA,NA,NA,NA,"narrative",NA,NA,NA
NA,NA,NA,NA,NA,NA,NA,NA,"narrative",NA,NA,NA
NA,NA,NA,NA,NA,NA,NA,NA,"narrative",NA,NA,NA
NA,NA,NA,NA,NA,NA,NA,NA,"narrative",NA,NA,NA
NA,NA,NA,NA,NA,NA,NA,NA,"narrative",NA,NA,NA
NA,NA,NA,NA,NA,NA,NA,NA,"narrative",NA,NA,NA
NA,NA,NA,NA,NA,NA,NA,NA,"narrative",NA,NA,NA
NA,NA,NA,NA,NA,NA,NA,NA,"narrative",NA,NA,NA
NA,NA,NA,NA,NA,NA,NA,NA,"narrative",NA,NA,NA
NA,NA,NA,NA,NA,NA,NA,NA,"narrative",NA,NA,NA
NA,NA,NA,NA,NA,NA,NA,NA,"narrative",NA,NA,NA
NA,NA,NA,NA,NA,NA,NA,NA,"narrative",NA,NA,NA
NA,NA,NA,NA,NA,NA,NA,NA,"narrative",NA,NA,NA
NA,NA,NA,NA,NA,NA,NA,NA,"narrative",NA,NA,NA
NA,NA,NA,NA,NA,NA,NA,NA,"narrative",NA,NA,NA
NA,NA,NA,NA,NA,NA,NA,NA,"narrative",NA,NA,NA
NA,NA,NA,NA,NA,NA,NA,NA,"narrative",NA,NA,NA
NA,NA,NA,NA,NA,NA,NA,NA,"narrative",NA,NA,NA
NA,NA,NA,NA,NA,NA,NA,NA,"narrative",NA,NA,NA
NA,NA,NA,NA,NA,NA,NA,NA,"narrative",NA,NA,NA
NA,NA,NA,NA,NA,NA,NA,NA,"narrative",NA,NA,NA
NA,NA,NA,NA,NA,NA,NA,NA,"narrative",NA,NA,NA
NA,NA,NA,NA,NA,NA,NA,NA,"narrative",NA,NA,NA
NA,NA,NA,NA,NA,NA,NA,NA,"narrative",NA,NA,NA
NA,NA,NA,NA,NA,NA,NA,NA,"narrative",NA,NA,NA
NA,NA,NA,NA,NA,NA,NA,NA,"narrative",NA,NA,NA
NA,NA,NA,NA,NA,NA,NA,NA,"narrative",NA,NA,NA
NA,NA,NA,NA,NA,NA,NA,NA,"narrative",NA,NA,NA
NA,NA,NA,NA,NA,NA,NA,NA,"narrative",NA,NA,NA
NA,NA,NA,NA,NA,NA,NA,NA,"narrative",NA,NA,NA
NA,NA,NA,NA,NA,NA,NA,NA,"narrative",NA,NA,NA
NA,NA,NA,NA,NA,NA,NA,NA,"narrative",NA,NA,NA
NA,NA,NA,NA,NA,NA,NA,NA,"narrative",NA,NA,NA
NA,NA,NA,NA,NA,NA,NA,NA,"narrative",NA,NA,NA
NA,NA,NA,NA,NA,NA,NA,NA,"narrative",NA,NA,NA
NA,NA,NA,NA,NA,NA,NA,NA,"narrative",NA,NA,NA
NA,NA,NA,NA,NA,NA,NA,NA,"narrative",NA,NA,NA
NA,NA,NA,NA,NA,NA,NA,NA,"narrative",NA,NA,NA
NA,NA,NA,NA,NA,NA,NA,NA,"narrative",NA,NA,NA
NA,NA,NA,NA,NA,NA,NA,NA,"narrative",NA,NA,NA
NA,NA,NA,NA,NA,NA,NA,NA,"narrative",NA,NA,NA
NA,NA,NA,NA,NA,NA,NA,NA,"narrative",NA,NA,NA
NA,NA,NA,NA,NA,NA,NA,NA,"narrative",NA,NA,NA
NA,NA,NA,NA,NA,NA,NA,NA,"narrative",NA,NA,NA
NA,NA,NA,NA,NA,NA,NA,NA,"narrative",NA,NA,NA
NA,NA,NA,NA,NA,NA,NA,NA,"narrative",NA,NA,NA
NA,NA,NA,NA,NA,NA,NA,NA,"narrative",NA,NA,NA
NA,NA,NA,NA,NA,NA,NA,NA,"narrative",NA,NA,NA
NA,NA,NA,NA,NA,NA,NA,NA,"narrative",NA,NA,NA
NA,NA,NA,NA,NA,NA,NA,NA,"narrative",NA,NA,NA
NA,NA,NA,NA,NA,NA,NA,NA,"narrative",NA,NA,NA
NA,NA,NA,NA,NA,NA,NA,NA,"narrative",NA,NA,NA
NA,NA,NA,NA,NA,NA,NA,NA,"narrative",NA,NA,NA
NA,NA,NA,NA,NA,NA,NA,NA,"narrative",NA,NA,NA
NA,NA,NA,NA,NA,NA,NA,NA,"narrative",NA,NA,NA
NA,NA,NA,NA,NA,NA,NA,NA,"narrative",NA,NA,NA
NA,NA,NA,NA,NA,NA,NA,NA,"narrative",NA,NA,NA
NA,NA,NA,NA,NA,NA,NA,NA,"narrative",NA,NA,NA
NA,NA,NA,NA,NA,NA,NA,NA,"narrative",NA,NA,NA
NA,NA,NA,NA,NA,NA,NA,NA,"narrative",NA,NA,NA
NA,NA,NA,NA,NA,NA,NA,NA,"narrative",NA,NA,NA
NA,NA,NA,NA,NA,NA,NA,NA,"narrative",NA,NA,NA
NA,NA,NA,NA,NA,NA,NA,NA,"narrative",NA,NA,NA
NA,NA,NA,NA,NA,NA,NA,NA,"narrative",NA,NA,NA
NA,NA,NA,NA,NA,NA,NA,NA,"narrative",NA,NA,NA
NA,NA,NA,NA,NA,NA,NA,NA,"narrative",NA,NA,NA
NA,NA,NA,NA,NA,NA,NA,NA,"narrative",NA,NA,NA
NA,NA,NA,NA,NA,NA,NA,NA,"narrative",NA,NA,NA
NA,NA,NA,NA,NA,NA,NA,NA,"narrative",NA,NA,NA
NA,NA,NA,NA,NA,NA,NA,NA,"narrative",NA,NA,NA
NA,NA,NA,NA,NA,NA,NA,NA,"narrative",NA,NA,NA
NA,NA,NA,NA,NA,NA,NA,NA,"narrative",NA,NA,NA
NA,NA,NA,NA,NA,NA,NA,NA,"narrative",NA,NA,NA
NA,NA,NA,NA,NA,NA,NA,NA,"narrative",NA,NA,NA
NA,NA,NA,NA,NA,NA,NA,NA,"narrative",NA,NA,NA
NA,NA,NA,NA,NA,NA,NA,NA,"narrative",NA,NA,NA
NA,NA,NA,NA,NA,NA,NA,NA,"narrative",NA,NA,NA
NA,NA,NA,NA,NA,NA,NA,NA,"narrative",NA,NA,NA
NA,NA,NA,NA,NA,NA,NA,NA,"narrative",NA,NA,NA
NA,NA,NA,NA,NA,NA,NA,NA,"narrative",NA,NA,NA
NA,NA,NA,NA,NA,NA,NA,NA,"narrative",NA,NA,NA
NA,NA,NA,NA,NA,NA,NA,NA,"narrative",NA,NA,NA
NA,NA,NA,NA,NA,NA,NA,NA,"narrative",NA,NA,NA
NA,NA,NA,NA,NA,NA,NA,NA,"narrative",NA,NA,NA
NA,NA,NA,NA,NA,NA,NA,NA,"narrative",NA,NA,NA
NA,NA,NA,NA,NA,NA,NA,NA,"narrative",NA,NA,NA
NA,NA,NA,NA,NA,NA,NA,NA,"narrative",NA,NA,NA
NA,NA,NA,NA,NA,NA,NA,NA,"narrative",NA,NA,NA
NA,NA,NA,NA,NA,NA,NA,NA,"narrative",NA,NA,NA
NA,NA,NA,NA,NA,NA,NA,NA,"narrative",NA,NA,NA
NA,NA,NA,NA,NA,NA,NA,NA,"narrative",NA,NA,NA
NA,NA,NA,NA,NA,NA,NA,NA,"narrative",NA,NA,NA
NA,NA,NA,NA,NA,NA,NA,NA,"narrative",NA,NA,NA
NA,NA,NA,NA,NA,NA,NA,NA,"narrative",NA,NA,NA
NA,NA,NA,NA,NA,NA,NA,NA,"narrative",NA,NA,NA
NA,NA,NA,NA,NA,NA,NA,NA,"narrative",NA,NA,NA
NA,NA,NA,NA,NA,NA,NA,NA,"narrative",NA,NA,NA
NA,NA,NA,NA,NA,NA,NA,NA,"narrative",NA,NA,NA
NA,NA,NA,NA,NA,NA,NA,NA,"narrative",NA,NA,NA
NA,NA,NA,NA,NA,NA,NA,NA,"narrative",NA,NA,NA
NA,NA,NA,NA,NA,NA,NA,NA,"narrative",NA,NA,NA
NA,NA,NA,NA,NA,NA,NA,NA,"narrative",NA,NA,NA
NA,NA,NA,NA,NA,NA,NA,NA,"narrative",NA,NA,NA
NA,NA,NA,NA,NA,NA,NA,NA,"narrative",NA,NA,NA
NA,NA,NA,NA,NA,NA,NA,NA,"narrative",NA,NA,NA
NA,NA,NA,NA,NA,NA,NA,NA,"narrative",NA,NA,NA
NA,NA,NA,NA,NA,NA,NA,NA,"narrative",NA,NA,NA
NA,NA,NA,NA,NA,NA,NA,NA,"narrative",NA,NA,NA
NA,NA,NA,NA,NA,NA,NA,NA,"narrative",NA,NA,NA
NA,NA,NA,NA,NA,NA,NA,NA,"narrative",NA,NA,NA
NA,NA,NA,NA,NA,NA,NA,NA,"narrative",NA,NA,NA
NA,NA,NA,NA,NA,NA,NA,NA,"narrative",NA,NA,NA
NA,NA,NA,NA,NA,NA,NA,NA,"narrative",NA,NA,NA
NA,NA,NA,NA,NA,NA,NA,NA,"narrative",NA,NA,NA
NA,NA,NA,NA,NA,NA,NA,NA,"narrative",NA,NA,NA
NA,NA,NA,NA,NA,NA,NA,NA,"narrative",NA,NA,NA
NA,NA,NA,NA,NA,NA,NA,NA,"narrative",NA,NA,NA
NA,NA,NA,NA,NA,NA,NA,NA,"narrative",NA,NA,NA
NA,NA,NA,NA,NA,NA,NA,NA,"narrative",NA,NA,NA
NA,NA,NA,NA,NA,NA,NA,NA,"narrative",NA,NA,NA
NA,NA,NA,NA,NA,NA,NA,NA,"narrative",NA,NA,NA
NA,NA,NA,NA,NA,NA,NA,NA,"narrative",NA,NA,NA
NA,NA,NA,NA,NA,NA,NA,NA,"narrative",NA,NA,NA
NA,NA,NA,NA,NA,NA,NA,NA,"narrative",NA,NA,NA
NA,NA,NA,NA,NA,NA,NA,NA,"narrative",NA,NA,NA
NA,NA,NA,NA,NA,NA,NA,NA,"narrative",NA,NA,NA
NA,NA,NA,NA,NA,NA,NA,NA,"narrative",NA,NA,NA
NA,NA,NA,NA,NA,NA,NA,NA,"narrative",NA,NA,NA
NA,NA,NA,NA,NA,NA,NA,NA,"narrative",NA,NA,NA
NA,NA,NA,NA,NA,NA,NA,NA,"narrative",NA,NA,NA
NA,NA,NA,NA,NA,NA,NA,NA,"narrative",NA,NA,NA
NA,NA,NA,NA,NA,NA,NA,NA,"narrative",NA,NA,NA
NA,NA,NA,NA,NA,NA,NA,NA,"narrative",NA,NA,NA
NA,NA,NA,NA,NA,NA,NA,NA,"narrative",NA,NA,NA
NA,NA,NA,NA,NA,NA,NA,NA,"narrative",NA,NA,NA
NA,NA,NA,NA,NA,NA,NA,NA,"narrative",NA,NA,NA
NA,NA,NA,NA,NA,NA,NA,NA,"narrative",NA,NA,NA
NA,NA,NA,NA,NA,NA,NA,NA,"narrative",NA,NA,NA
NA,NA,NA,NA,NA,NA,NA,NA,"narrative",NA,NA,NA
NA,NA,NA,NA,NA,NA,NA,NA,"narrative",NA,NA,NA
NA,NA,NA,NA,NA,NA,NA,NA,"narrative",NA,NA,NA
NA,NA,NA,NA,NA,NA,NA,NA,"narrative",NA,NA,NA
NA,NA,NA,NA,NA,NA,NA,NA,"narrative",NA,NA,NA
NA,NA,NA,NA,NA,NA,NA,NA,"narrative",NA,NA,NA
NA,NA,NA,NA,NA,NA,NA,NA,"narrative",NA,NA,NA
NA,NA,NA,NA,NA,NA,NA,NA,"narrative",NA,NA,NA
NA,NA,NA,NA,NA,NA,NA,NA,"narrative",NA,NA,NA
NA,NA,NA,NA,NA,NA,NA,NA,"narrative",NA,NA,NA
NA,NA,NA,NA,NA,NA,NA,NA,"narrative",NA,NA,NA
NA,NA,NA,NA,NA,NA,NA,NA,"narrative",NA,NA,NA
NA,NA,NA,NA,NA,NA,NA,NA,"narrative",NA,NA,NA
NA,NA,NA,NA,NA,NA,NA,NA,"narrative",NA,NA,NA
NA,NA,NA,NA,NA,NA,NA,NA,"narrative",NA,NA,NA
NA,NA,NA,NA,NA,NA,NA,NA,"narrative",NA,NA,NA
NA,NA,NA,NA,NA,NA,NA,NA,"narrative",NA,NA,NA
NA,NA,NA,NA,NA,NA,NA,NA,"narrative",NA,NA,NA
NA,NA,NA,NA,NA,NA,NA,NA,"narrative",NA,NA,NA
NA,NA,NA,NA,NA,NA,NA,NA,"narrative",NA,NA,NA
NA,NA,NA,NA,NA,NA,NA,NA,"narrative",NA,NA,NA
NA,NA,NA,NA,NA,NA,NA,NA,"narrative",NA,NA,NA
NA,NA,NA,NA,NA,NA,NA,NA,"narrative",NA,NA,NA
NA,NA,NA,NA,NA,NA,NA,NA,"narrative",NA,NA,NA
NA,NA,NA,NA,NA,NA,NA,NA,"narrative",NA,NA,NA
NA,NA,NA,NA,NA,NA,NA,NA,"narrative",NA,NA,NA
NA,NA,NA,NA,NA,NA,NA,NA,"narrative",NA,NA,NA
NA,NA,NA,NA,NA,NA,NA,NA,"narrative",NA,NA,NA
NA,NA,NA,NA,NA,NA,NA,NA,"narrative",NA,NA,NA
NA,NA,NA,NA,NA,NA,NA,NA,"narrative",NA,NA,NA
NA,NA,NA,NA,NA,NA,NA,NA,"narrative",NA,NA,NA
NA,NA,NA,NA,NA,NA,NA,NA,"narrative",NA,NA,NA
NA,NA,NA,NA,NA,NA,NA,NA,"narrative",NA,NA,NA
NA,NA,NA,NA,NA,NA,NA,NA,"narrative",NA,NA,NA
NA,NA,NA,NA,NA,NA,NA,NA,"narrative",NA,NA,NA
NA,NA,NA,NA,NA,NA,NA,NA,"narrative",NA,NA,NA
NA,NA,NA,NA,NA,NA,NA,NA,"narrative",NA,NA,NA
NA,NA,NA,NA,NA,NA,NA,NA,"narrative",NA,NA,NA
NA,NA,NA,NA,NA,NA,NA,NA,"narrative",NA,NA,NA
NA,NA,NA,NA,NA,NA,NA,NA,"narrative",NA,NA,NA
NA,NA,NA,NA,NA,NA,NA,NA,"narrative",NA,NA,NA
NA,NA,NA,NA,NA,NA,NA,NA,"narrative",NA,NA,NA
NA,NA,NA,NA,NA,NA,NA,NA,"narrative",NA,NA,NA
NA,NA,NA,NA,NA,NA,NA,NA,"narrative",NA,NA,NA
NA,NA,NA,NA,NA,NA,NA,NA,"narrative",NA,NA,NA
NA,NA,NA,NA,NA,NA,NA,NA,"narrative",NA,NA,NA
NA,NA,NA,NA,NA,NA,NA,NA,"narrative",NA,NA,NA
NA,NA,NA,NA,NA,NA,NA,NA,"narrative",NA,NA,NA
NA,NA,NA,NA,NA,NA,NA,NA,"narrative",NA,NA,NA
NA,NA,NA,NA,NA,NA,NA,NA,"narrative",NA,NA,NA
NA,NA,NA,NA,NA,NA,NA,NA,"narrative",NA,NA,NA
NA,NA,NA,NA,NA,NA,NA,NA,"narrative",NA,NA,NA
NA,NA,NA,NA,NA,NA,NA,NA,"narrative",NA,NA,NA
NA,NA,NA,NA,NA,NA,NA,NA,"narrative",NA,NA,NA
NA,NA,NA,NA,NA,NA,NA,NA,"narrative",NA,NA,NA
NA,NA,NA,NA,NA,NA,NA,NA,"narrative",NA,NA,NA
NA,NA,NA,NA,NA,NA,NA,NA,"narrative",NA,NA,NA
NA,NA,NA,NA,NA,NA,NA,NA,"narrative",NA,NA,NA
NA,NA,NA,NA,NA,NA,NA,NA,"narrative",NA,NA,NA
NA,NA,NA,NA,NA,NA,NA,NA,"narrative",NA,NA,NA
NA,NA,NA,NA,NA,NA,NA,NA,"narrative",NA,NA,NA
NA,NA,NA,NA,NA,NA,NA,NA,"narrative",NA,NA,NA
NA,NA,NA,NA,NA,NA,NA,NA,"narrative",NA,NA,NA
NA,NA,NA,NA,NA,NA,NA,NA,"narrative",NA,NA,NA
NA,NA,NA,NA,NA,NA,NA,NA,"narrative",NA,NA,NA
NA,NA,NA,NA,NA,NA,NA,NA,"narrative",NA,NA,NA
NA,NA,NA,NA,NA,NA,NA,NA,"narrative",NA,NA,NA
NA,NA,NA,NA,NA,NA,NA,NA,"narrative",NA,NA,NA
NA,NA,NA,NA,NA,NA,NA,NA,"narrative",NA,NA,NA
NA,NA,NA,NA,NA,NA,NA,NA,"narrative",NA,NA,NA
NA,NA,NA,NA,NA,NA,NA,NA,"narrative",NA,NA,NA
NA,NA,NA,NA,NA,NA,NA,NA,"narrative",NA,NA,NA
NA,NA,NA,NA,NA,NA,NA,NA,"narrative",NA,NA,NA
NA,NA,NA,NA,NA,NA,NA,NA,"narrative",NA,NA,NA
NA,NA,NA,NA,NA,NA,NA,NA,"narrative",NA,NA,NA
NA,NA,NA,NA,NA,NA,NA,NA,"narrative",NA,NA,NA
NA,NA,NA,NA,NA,NA,NA,NA,"narrative",NA,NA,NA
NA,NA,NA,NA,NA,NA,NA,NA,"narrative",NA,NA,NA
NA,NA,NA,NA,NA,NA,NA,NA,"narrative",NA,NA,NA
NA,NA,NA,NA,NA,NA,NA,NA,"narrative",NA,NA,NA
NA,NA,NA,NA,NA,NA,NA,NA,"narrative",NA,NA,NA
NA,NA,NA,NA,NA,NA,NA,NA,"narrative",NA,NA,NA
NA,NA,NA,NA,NA,NA,NA,NA,"narrative",NA,NA,NA
NA,NA,NA,NA,NA,NA,NA,NA,"narrative",NA,NA,NA
NA,NA,NA,NA,NA,NA,NA,NA,"narrative",NA,NA,NA
NA,NA,NA,NA,NA,NA,NA,NA,"narrative",NA,NA,NA
NA,NA,NA,NA,NA,NA,NA,NA,"narrative",NA,NA,NA
NA,NA,NA,NA,NA,NA,NA,NA,"narrative",NA,NA,NA
NA,NA,NA,NA,NA,NA,NA,NA,"narrative",NA,NA,NA
NA,NA,NA,NA,NA,NA,NA,NA,"narrative",NA,NA,NA
NA,NA,NA,NA,NA,NA,NA,NA,"narrative",NA,NA,NA
NA,NA,NA,NA,NA,NA,NA,NA,"narrative",NA,NA,NA
NA,NA,NA,NA,NA,NA,NA,NA,"narrative",NA,NA,NA
NA,NA,NA,NA,NA,NA,NA,NA,"narrative",NA,NA,NA
NA,NA,NA,NA,NA,NA,NA,NA,"narrative",NA,NA,NA
NA,NA,NA,NA,NA,NA,NA,NA,"narrative",NA,NA,NA
NA,NA,NA,NA,NA,NA,NA,NA,"narrative",NA,NA,NA
NA,NA,NA,NA,NA,NA,NA,NA,"narrative",NA,NA,NA
NA,NA,NA,NA,NA,NA,NA,NA,"narrative",NA,NA,NA
NA,NA,NA,NA,NA,NA,NA,NA,"narrative",NA,NA,NA
NA,NA,NA,NA,NA,NA,NA,NA,"narrative",NA,NA,NA
NA,NA,NA,NA,NA,NA,NA,NA,"narrative",NA,NA,NA
NA,NA,NA,NA,NA,NA,NA,NA,"narrative",NA,NA,NA
NA,NA,NA,NA,NA,NA,NA,NA,"narrative",NA,NA,NA
NA,NA,NA,NA,NA,NA,NA,NA,"narrative",NA,NA,NA
NA,NA,NA,NA,NA,NA,NA,NA,"narrative",NA,NA,NA
NA,NA,NA,NA,NA,NA,NA,NA,"narrative",NA,NA,NA
NA,NA,NA,NA,NA,NA,NA,NA,"narrative",NA,NA,NA
NA,NA,NA,NA,NA,NA,NA,NA,"narrative",NA,NA,NA
NA,NA,NA,NA,NA,NA,NA,NA,"narrative",NA,NA,NA
NA,NA,NA,NA,NA,NA,NA,NA,"narrative",NA,NA,NA
NA,NA,NA,NA,NA,NA,NA,NA,"narrative",NA,NA,NA
NA,NA,NA,NA,NA,NA,NA,NA,"narrative",NA,NA,NA
NA,NA,NA,NA,NA,NA,NA,NA,"narrative",NA,NA,NA
NA,NA,NA,NA,NA,NA,NA,NA,"narrative",NA,NA,NA
NA,NA,NA,NA,NA,NA,NA,NA,"narrative",NA,NA,NA
NA,NA,NA,NA,NA,NA,NA,NA,"narrative",NA,NA,NA
NA,NA,NA,NA,NA,NA,NA,NA,"narrative",NA,NA,NA
NA,NA,NA,NA,NA,NA,NA,NA,"narrative",NA,NA,NA
NA,NA,NA,NA,NA,NA,NA,NA,"narrative",NA,NA,NA
NA,NA,NA,NA,NA,NA,NA,NA,"narrative",NA,NA,NA
NA,NA,NA,NA,NA,NA,NA,NA,"narrative",NA,NA,NA
NA,NA,NA,NA,NA,NA,NA,NA,"narrative",NA,NA,NA
NA,NA,NA,NA,NA,NA,NA,NA,"narrative",NA,NA,NA
NA,NA,NA,NA,NA,NA,NA,NA,"narrative",NA,NA,NA
NA,NA,NA,NA,NA,NA,NA,NA,"narrative",NA,NA,NA
NA,NA,NA,NA,NA,NA,NA,NA,"narrative",NA,NA,NA
NA,NA,NA,NA,NA,NA,NA,NA,"narrative",NA,NA,NA
NA,NA,NA,NA,NA,NA,NA,NA,"narrative",NA,NA,NA
NA,NA,NA,NA,NA,NA,NA,NA,"narrative",NA,NA,NA
NA,NA,NA,NA,NA,NA,NA,NA,"narrative",NA,NA,NA
NA,NA,NA,NA,NA,NA,NA,NA,"narrative",NA,NA,NA
NA,NA,NA,NA,NA,NA,NA,NA,"narrative",NA,NA,NA
NA,NA,NA,NA,NA,NA,NA,NA,"narrative",NA,NA,NA
NA,NA,NA,NA,NA,NA,NA,NA,"narrative",NA,NA,NA
NA,NA,NA,NA,NA,NA,NA,NA,"narrative",NA,NA,NA
NA,NA,NA,NA,NA,NA,NA,NA,"narrative",NA,NA,NA
NA,NA,NA,NA,NA,NA,NA,NA,"narrative",NA,NA,NA
NA,NA,NA,NA,NA,NA,NA,NA,"narrative",NA,NA,NA
NA,NA,NA,NA,NA,NA,NA,NA,"narrative",NA,NA,NA
NA,NA,NA,NA,NA,NA,NA,NA,"narrative",NA,NA,NA
NA,NA,NA,NA,NA,NA,NA,NA,"narrative",NA,NA,NA
NA,NA,NA,NA,NA,NA,NA,NA,"narrative",NA,NA,NA
NA,NA,NA,NA,NA,NA,NA,NA,"narrative",NA,NA,NA
NA,NA,NA,NA,NA,NA,NA,NA,"narrative",NA,NA,NA
NA,NA,NA,NA,NA,NA,NA,NA,"narrative",NA,NA,NA
NA,NA,NA,NA,NA,NA,NA,NA,"narrative",NA,NA,NA
NA,NA,NA,NA,NA,NA,NA,NA,"narrative",NA,NA,NA
NA,NA,NA,NA,NA,NA,NA,NA,"narrative",NA,NA,NA
NA,NA,NA,NA,NA,NA,NA,NA,"narrative",NA,NA,NA
NA,NA,NA,NA,NA,NA,NA,NA,"narrative",NA,NA,NA
NA,NA,NA,NA,NA,NA,NA,NA,"narrative",NA,NA,NA
NA,NA,NA,NA,NA,NA,NA,NA,"narrative",NA,NA,NA
NA,NA,NA,NA,NA,NA,NA,NA,"narrative",NA,NA,NA
NA,NA,NA,NA,NA,NA,NA,NA,"narrative",NA,NA,NA
NA,NA,NA,NA,NA,NA,NA,NA,"narrative",NA,NA,NA
NA,NA,NA,NA,NA,NA,NA,NA,"narrative",NA,NA,NA
NA,NA,NA,NA,NA,NA,NA,NA,"narrative",NA,NA,NA
NA,NA,NA,NA,NA,NA,NA,NA,"narrative",NA,NA,NA
NA,NA,NA,NA,NA,NA,NA,NA,"narrative",NA,NA,NA
NA,NA,NA,NA,NA,NA,NA,NA,"narrative",NA,NA,NA
NA,NA,NA,NA,NA,NA,NA,NA,"narrative",NA,NA,NA
NA,NA,NA,NA,NA,NA,NA,NA,"narrative",NA,NA,NA
NA,NA,NA,NA,NA,NA,NA,NA,"narrative",NA,NA,NA
NA,NA,NA,NA,NA,NA,NA,NA,"narrative",NA,NA,NA
NA,NA,NA,NA,NA,NA,NA,NA,"narrative",NA,NA,NA
NA,NA,NA,NA,NA,NA,NA,NA,"narrative",NA,NA,NA
NA,NA,NA,NA,NA,NA,NA,NA,"narrative",NA,NA,NA
NA,NA,NA,NA,NA,NA,NA,NA,"narrative",NA,NA,NA
NA,NA,NA,NA,NA,NA,NA,NA,"narrative",NA,NA,NA
NA,NA,NA,NA,NA,NA,NA,NA,"narrative",NA,NA,NA
NA,NA,NA,NA,NA,NA,NA,NA,"narrative",NA,NA,NA
NA,NA,NA,NA,NA,NA,NA,NA,"narrative",NA,NA,NA
NA,NA,NA,NA,NA,NA,NA,NA,"narrative",NA,NA,NA
NA,NA,NA,NA,NA,NA,NA,NA,"narrative",NA,NA,NA
NA,NA,NA,NA,NA,NA,NA,NA,"narrative",NA,NA,NA
NA,NA,NA,NA,NA,NA,NA,NA,"narrative",NA,NA,NA
NA,NA,NA,NA,NA,NA,NA,NA,"narrative",NA,NA,NA
NA,NA,NA,NA,NA,NA,NA,NA,"narrative",NA,NA,NA
NA,NA,NA,NA,NA,NA,NA,NA,"narrative",NA,NA,NA
NA,NA,NA,NA,NA,NA,NA,NA,"narrative",NA,NA,NA
NA,NA,NA,NA,NA,NA,NA,NA,"narrative",NA,NA,NA
NA,NA,NA,NA,NA,NA,NA,NA,"narrative",NA,NA,NA
NA,NA,NA,NA,NA,NA,NA,NA,"narrative",NA,NA,NA
NA,NA,NA,NA,NA,NA,NA,NA,"narrative",NA,NA,NA
NA,NA,NA,NA,NA,NA,NA,NA,"narrative",NA,NA,NA
NA,NA,NA,NA,NA,NA,NA,NA,"narrative",NA,NA,NA
NA,NA,NA,NA,NA,NA,NA,NA,"narrative",NA,NA,NA
NA,NA,NA,NA,NA,NA,NA,NA,"narrative",NA,NA,NA
NA,NA,NA,NA,NA,NA,NA,NA,"narrative",NA,NA,NA
NA,NA,NA,NA,NA,NA,NA,NA,"narrative",NA,NA,NA
NA,NA,NA,NA,NA,NA,NA,NA,"narrative",NA,NA,NA
NA,NA,NA,NA,NA,NA,NA,NA,"narrative",NA,NA,NA
NA,NA,NA,NA,NA,NA,NA,NA,"narrative",NA,NA,NA
NA,NA,NA,NA,NA,NA,NA,NA,"narrative",NA,NA,NA
NA,NA,NA,NA,NA,NA,NA,NA,"narrative",NA,NA,NA
NA,NA,NA,NA,NA,NA,NA,NA,"narrative",NA,NA,NA
NA,NA,NA,NA,NA,NA,NA,NA,"narrative",NA,NA,NA
NA,NA,NA,NA,NA,NA,NA,NA,"narrative",NA,NA,NA
NA,NA,NA,NA,NA,NA,NA,NA,"narrative",NA,NA,NA
NA,NA,NA,NA,NA,NA,NA,NA,"narrative",NA,NA,NA
NA,NA,NA,NA,NA,NA,NA,NA,"narrative",NA,NA,NA
NA,NA,NA,NA,NA,NA,NA,NA,"narrative",NA,NA,NA
NA,NA,NA,NA,NA,NA,NA,NA,"narrative",NA,NA,NA
NA,NA,NA,NA,NA,NA,NA,NA,"narrative",NA,NA,NA
NA,NA,NA,NA,NA,NA,NA,NA,"narrative",NA,NA,NA
NA,NA,NA,NA,NA,NA,NA,NA,"narrative",NA,NA,NA
NA,NA,NA,NA,NA,NA,NA,NA,"narrative",NA,NA,NA
NA,NA,NA,NA,NA,NA,NA,NA,"narrative",NA,NA,NA
NA,NA,NA,NA,NA,NA,NA,NA,"narrative",NA,NA,NA
NA,NA,NA,NA,NA,NA,NA,NA,"narrative",NA,NA,NA
NA,NA,NA,NA,NA,NA,NA,NA,"narrative",NA,NA,NA
NA,NA,NA,NA,NA,NA,NA,NA,"narrative",NA,NA,NA
NA,NA,NA,NA,NA,NA,NA,NA,"narrative",NA,NA,NA
NA,NA,NA,NA,NA,NA,NA,NA,"narrative",NA,NA,NA
NA,NA,NA,NA,NA,NA,NA,NA,"narrative",NA,NA,NA
NA,NA,NA,NA,NA,NA,NA,NA,"narrative",NA,NA,NA
NA,NA,NA,NA,NA,NA,NA,NA,"narrative",NA,NA,NA
NA,NA,NA,NA,NA,NA,NA,NA,"narrative",NA,NA,NA
NA,NA,NA,NA,NA,NA,NA,NA,"narrative",NA,NA,NA
NA,NA,NA,NA,NA,NA,NA,NA,"narrative",NA,NA,NA
NA,NA,NA,NA,NA,NA,NA,NA,"narrative",NA,NA,NA
NA,NA,NA,NA,NA,NA,NA,NA,"narrative",NA,NA,NA
NA,NA,NA,NA,NA,NA,NA,NA,"narrative",NA,NA,NA
NA,NA,NA,NA,NA,NA,NA,NA,"narrative",NA,NA,NA
NA,NA,NA,NA,NA,NA,NA,NA,"narrative",NA,NA,NA
NA,NA,NA,NA,NA,NA,NA,NA,"narrative",NA,NA,NA
NA,NA,NA,NA,NA,NA,NA,NA,"narrative",NA,NA,NA
NA,NA,NA,NA,NA,NA,NA,NA,"narrative",NA,NA,NA
NA,NA,NA,NA,NA,NA,NA,NA,"narrative",NA,NA,NA
NA,NA,NA,NA,NA,NA,NA,NA,"narrative",NA,NA,NA
NA,NA,NA,NA,NA,NA,NA,NA,"narrative",NA,NA,NA
NA,NA,NA,NA,NA,NA,NA,NA,"narrative",NA,NA,NA
NA,NA,NA,NA,NA,NA,NA,NA,"narrative",NA,NA,NA
NA,NA,NA,NA,NA,NA,NA,NA,"narrative",NA,NA,NA
NA,NA,NA,NA,NA,NA,NA,NA,"narrative",NA,NA,NA
NA,NA,NA,NA,NA,NA,NA,NA,"narrative",NA,NA,NA
NA,NA,NA,NA,NA,NA,NA,NA,"narrative",NA,NA,NA
NA,NA,NA,NA,NA,NA,NA,NA,"narrative",NA,NA,NA
NA,NA,NA,NA,NA,NA,NA,NA,"narrative",NA,NA,NA
NA,NA,NA,NA,NA,NA,NA,NA,"narrative",NA,NA,NA
NA,NA,NA,NA,NA,NA,NA,NA,"narrative",NA,NA,NA
NA,NA,NA,NA,NA,NA,NA,NA,"narrative",NA,NA,NA
NA,NA,NA,NA,NA,NA,NA,NA,"narrative",NA,NA,NA
NA,NA,NA,NA,NA,NA,NA,NA,"narrative",NA,NA,NA
NA,NA,NA,NA,NA,NA,NA,NA,"narrative",NA,NA,NA
NA,NA,NA,NA,NA,NA,NA,NA,"narrative",NA,NA,NA
NA,NA,NA,NA,NA,NA,NA,NA,"narrative",NA,NA,NA
NA,NA,NA,NA,NA,NA,NA,NA,"narrative",NA,NA,NA
NA,NA,NA,NA,NA,NA,NA,NA,"narrative",NA,NA,NA
NA,NA,NA,NA,NA,NA,NA,NA,"narrative",NA,NA,NA
NA,NA,NA,NA,NA,NA,NA,NA,"narrative",NA,NA,NA
NA,NA,NA,NA,NA,NA,NA,NA,"narrative",NA,NA,NA
NA,NA,NA,NA,NA,NA,NA,NA,"narrative",NA,NA,NA
NA,NA,NA,NA,NA,NA,NA,NA,"narrative",NA,NA,NA
NA,NA,NA,NA,NA,NA,NA,NA,"narrative",NA,NA,NA
NA,NA,NA,NA,NA,NA,NA,NA,"narrative",NA,NA,NA
NA,NA,NA,NA,NA,NA,NA,NA,"narrative",NA,NA,NA
NA,NA,NA,NA,NA,NA,NA,NA,"narrative",NA,NA,NA
NA,NA,NA,NA,NA,NA,NA,NA,"narrative",NA,NA,NA
NA,NA,NA,NA,NA,NA,NA,NA,"narrative",NA,NA,NA
NA,NA,NA,NA,NA,NA,NA,NA,"narrative",NA,NA,NA
NA,NA,NA,NA,NA,NA,NA,NA,"narrative",NA,NA,NA
NA,NA,NA,NA,NA,NA,NA,NA,"narrative",NA,NA,NA
NA,NA,NA,NA,NA,NA,NA,NA,"narrative",NA,NA,NA
NA,NA,NA,NA,NA,NA,NA,NA,"narrative",NA,NA,NA
NA,NA,NA,NA,NA,NA,NA,NA,"narrative",NA,NA,NA
NA,NA,NA,NA,NA,NA,NA,NA,"narrative",NA,NA,NA
NA,NA,NA,NA,NA,NA,NA,NA,"narrative",NA,NA,NA
NA,NA,NA,NA,NA,NA,NA,NA,"narrative",NA,NA,NA
NA,NA,NA,NA,NA,NA,NA,NA,"narrative",NA,NA,NA
NA,NA,NA,NA,NA,NA,NA,NA,"narrative",NA,NA,NA
NA,NA,NA,NA,NA,NA,NA,NA,"narrative",NA,NA,NA
NA,NA,NA,NA,NA,NA,NA,NA,"narrative",NA,NA,NA
NA,NA,NA,NA,NA,NA,NA,NA,"narrative",NA,NA,NA
NA,NA,NA,NA,NA,NA,NA,NA,"narrative",NA,NA,NA
NA,NA,NA,NA,NA,NA,NA,NA,"narrative",NA,NA,NA
NA,NA,NA,NA,NA,NA,NA,NA,"narrative",NA,NA,NA
NA,NA,NA,NA,NA,NA,NA,NA,"narrative",NA,NA,NA
NA,NA,NA,NA,NA,NA,NA,NA,"narrative",NA,NA,NA
NA,NA,NA,NA,NA,NA,NA,NA,"narrative",NA,NA,NA
NA,NA,NA,NA,NA,NA,NA,NA,"narrative",NA,NA,NA
NA,NA,NA,NA,NA,NA,NA,NA,"narrative",NA,NA,NA
NA,NA,NA,NA,NA,NA,NA,NA,"narrative",NA,NA,NA
NA,NA,NA,NA,NA,NA,NA,NA,"narrative",NA,NA,NA
NA,NA,NA,NA,NA,NA,NA,NA,"narrative",NA,NA,NA
NA,NA,NA,NA,NA,NA,NA,NA,"narrative",NA,NA,NA
NA,NA,NA,NA,NA,NA,NA,NA,"narrative",NA,NA,NA
NA,NA,NA,NA,NA,NA,NA,NA,"narrative",NA,NA,NA
NA,NA,NA,NA,NA,NA,NA,NA,"narrative",NA,NA,NA
NA,NA,NA,NA,NA,NA,NA,NA,"narrative",NA,NA,NA
NA,NA,NA,NA,NA,NA,NA,NA,"narrative",NA,NA,NA
NA,NA,NA,NA,NA,NA,NA,NA,"narrative",NA,NA,NA
NA,NA,NA,NA,NA,NA,NA,NA,"narrative",NA,NA,NA
NA,NA,NA,NA,NA,NA,NA,NA,"narrative",NA,NA,NA
NA,NA,NA,NA,NA,NA,NA,NA,"narrative",NA,NA,NA
NA,NA,NA,NA,NA,NA,NA,NA,"narrative",NA,NA,NA
NA,NA,NA,NA,NA,NA,NA,NA,"narrative",NA,NA,NA
NA,NA,NA,NA,NA,NA,NA,NA,"narrative",NA,NA,NA
NA,NA,NA,NA,NA,NA,NA,NA,"narrative",NA,NA,NA
NA,NA,NA,NA,NA,NA,NA,NA,"narrative",NA,NA,NA
NA,NA,NA,NA,NA,NA,NA,NA,"narrative",NA,NA,NA
NA,NA,NA,NA,NA,NA,NA,NA,"narrative",NA,NA,NA
NA,NA,NA,NA,NA,NA,NA,NA,"narrative",NA,NA,NA
NA,NA,NA,NA,NA,NA,NA,NA,"narrative",NA,NA,NA
NA,NA,NA,NA,NA,NA,NA,NA,"narrative",NA,NA,NA
NA,NA,NA,NA,NA,NA,NA,NA,"narrative",NA,NA,NA
NA,NA,NA,NA,NA,NA,NA,NA,"narrative",NA,NA,NA
NA,NA,NA,NA,NA,NA,NA,NA,"narrative",NA,NA,NA
NA,NA,NA,NA,NA,NA,NA,NA,"narrative",NA,NA,NA
NA,NA,NA,NA,NA,NA,NA,NA,"narrative",NA,NA,NA
NA,NA,NA,NA,NA,NA,NA,NA,"narrative",NA,NA,NA
NA,NA,NA,NA,NA,NA,NA,NA,"narrative",NA,NA,NA
NA,NA,NA,NA,NA,NA,NA,NA,"narrative",NA,NA,NA
NA,NA,NA,NA,NA,NA,NA,NA,"narrative",NA,NA,NA
NA,NA,NA,NA,NA,NA,NA,NA,"narrative",NA,NA,NA
NA,NA,NA,NA,NA,NA,NA,NA,"narrative",NA,NA,NA
NA,NA,NA,NA,NA,NA,NA,NA,"narrative",NA,NA,NA
NA,NA,NA,NA,NA,NA,NA,NA,"narrative",NA,NA,NA
NA,NA,NA,NA,NA,NA,NA,NA,"narrative",NA,NA,NA
NA,NA,NA,NA,NA,NA,NA,NA,"narrative",NA,NA,NA
NA,NA,NA,NA,NA,NA,NA,NA,"narrative",NA,NA,NA
NA,NA,NA,NA,NA,NA,NA,NA,"narrative",NA,NA,NA
"1","CDISC","ADaM-IG","1.0,1.1,1.2,1.3","Medium","ADSL dataset does not exist","submission-dataset-exists","not_exists(ADSL)","predicate","2026-04-21T20:31:18Z",NA,NA
"102","CDISC","ADaM-IG","1.0,1.1,1.2,1.3","Medium","For every unique xx value of APERIOD, there is not an ADSL variable TRTxxP","adsl-index-var-exists","any_index_missing_ref_var(APERIOD,ADSL,TRTxxP,xx)","predicate","2026-04-21T20:08:03Z",NA,NA
"103","CDISC","ADaM-IG","1.0,1.1,1.2,1.3","Medium","For every unique xx value of APERIOD, there is not an ADSL variable TRxxSDT","adsl-index-var-exists","any_index_missing_ref_var(APERIOD,ADSL,TRxxSDT,xx)","predicate","2026-04-21T20:08:03Z",NA,NA
"104","CDISC","ADaM-IG","1.0,1.1,1.2,1.3","Medium","For every unique xx value of APERIOD, there is not an ADSL variable TRxxEDT","adsl-index-var-exists","any_index_missing_ref_var(APERIOD,ADSL,TRxxEDT,xx)","predicate","2026-04-21T20:08:03Z",NA,NA
"105","CDISC","ADaM-IG","1.0","Medium","There is more than one value of APERIODC for a given value of APERIOD","uniqueness-grouped","is_not_unique_relationship(APERIOD,APERIODC)","predicate","2026-04-21T11:50:50Z","unique",NA
"106","CDISC","ADaM-IG","1.0","Medium","There is more than one value of APERIOD for a given value of APERIODC","uniqueness-grouped","is_not_unique_relationship(APERIODC,APERIOD)","predicate","2026-04-21T11:50:50Z","unique",NA
"109","CDISC","ADaM-IG","1.0","Medium","Within a given value of PARAMCD, there is more than one value of AVISITN for a given value of AVISIT","uniqueness-grouped-scoped","is_not_unique_relationship(AVISIT,AVISITN,PARAMCD)","predicate","2026-04-21T16:39:26Z",NA,NA
"110","CDISC","ADaM-IG","1.0","Medium","Within a given value of PARAMCD, there is more than one value of AVISIT for a given value of AVISITN","uniqueness-grouped-scoped","is_not_unique_relationship(AVISITN,AVISIT,PARAMCD)","predicate","2026-04-21T16:39:26Z",NA,NA
"111","CDISC","ADaM-IG","1.0,1.1,1.2,1.3","Medium","ARELTM is present and ARELTMU is not present","presence-pair","exists(ARELTM) & not_exists(ARELTMU)","predicate","2026-04-20T00:00:00Z","find","demo conversion, predates the presence-pair batch"
"112","CDISC","ADaM-IG","1.0,1.1,1.2,1.3","Medium","ARELTM is populated and ARELTMU is not populated","value-conditional-populated","non_empty(ARELTM) & empty(ARELTMU)","predicate","2026-04-21T11:35:41Z","condition",NA
"113","CDISC","ADaM-IG","1.0,1.1,1.2,1.3","Medium","ARELTMU is present and ARELTM is not present","presence-pair","exists(ARELTMU) & not_exists(ARELTM)","predicate","2026-04-21T09:19:57Z","find",NA
"117","CDISC","ADaM-IG","1.0,1.2,1.3","Medium","Within a given value of PARAMCD, there is more than one value of ATPT for a given value of ATPTN","uniqueness-grouped-scoped","is_not_unique_relationship(ATPTN,ATPT,PARAMCD)","predicate","2026-04-21T16:39:26Z",NA,NA
"118","CDISC","ADaM-IG","1.0,1.2,1.3","Medium","Within a given value of PARAMCD, there is more than one value of ATPTN for a given value of ATPT","uniqueness-grouped-scoped","is_not_unique_relationship(ATPT,ATPTN,PARAMCD)","predicate","2026-04-21T16:39:26Z",NA,NA
"123","CDISC","ADaM-IG","1.0,1.1","Medium","There is more than one value of PARAMTYP for a given value of PARAMCD","uniqueness-grouped","is_not_unique_relationship(PARAMCD,PARAMTYP)","predicate","2026-04-21T11:50:50Z","unique",NA
"124","CDISC","ADaM-IG","1.0,1.1,1.2,1.3","Medium","There is more than one value of PARCATy for a given value of PARAMCD","uniqueness-grouped","is_not_unique_relationship(PARAMCD,PARCATy)","predicate","2026-04-21T15:33:29Z",NA,NA
"125","CDISC","ADaM-IG","1.0","Medium","There is more than one value of PARCATy for a given value of PARCATyN","uniqueness-grouped","is_not_unique_relationship(PARCATyN,PARCATy)","predicate","2026-04-21T15:33:29Z",NA,NA
"126","CDISC","ADaM-IG","1.0","Medium","There is more than one value of PARCATyN for a given value of PARCATy","uniqueness-grouped","is_not_unique_relationship(PARCATy,PARCATyN)","predicate","2026-04-21T15:33:29Z",NA,NA
"129","CDISC","ADaM-IG","1.0","Medium","Within a given value of PARAMCD for a subject, there is more than one value of BASE for a given value of BASEC","uniqueness-grouped-scoped","is_not_unique_relationship(BASEC,BASE,PARAMCD)","predicate","2026-04-21T16:39:26Z",NA,NA
"13","CDISC","ADaM-IG","1.0,1.1,1.2,1.3","Medium","The length of a variable name exceeds 8 characters","metadata-var-name-length","any_var_name_exceeds_length(8)","predicate","2026-04-21T17:40:33Z",NA,NA
"130","CDISC","ADaM-IG","1.0","Medium","Within a given value of PARAMCD for a subject, there is more than one value of BASEC for a given value of BASE","uniqueness-grouped-scoped","is_not_unique_relationship(BASE,BASEC,PARAMCD)","predicate","2026-04-21T16:39:26Z",NA,NA
"135","CDISC","ADaM-IG","1.0","Medium","Within a given value of PARAMCD, there is more than one value of SHIFTy for a given value of SHIFTyN","uniqueness-grouped-scoped","is_not_unique_relationship(SHIFTyN,SHIFTy,PARAMCD)","predicate","2026-04-21T16:39:26Z",NA,NA
"136","CDISC","ADaM-IG","1.0","Medium","Within a given value of PARAMCD, there is more than one value of SHIFTyN for a given value of SHIFTy","uniqueness-grouped-scoped","is_not_unique_relationship(SHIFTy,SHIFTyN,PARAMCD)","predicate","2026-04-21T16:39:26Z",NA,NA
"141","CDISC","ADaM-IG","1.0","Medium","There is more than one value of PARAM for a given value of PARAMCD","uniqueness-grouped","is_not_unique_relationship(PARAMCD,PARAM)","predicate","2026-04-21T11:50:50Z","unique",NA
"142","CDISC","ADaM-IG","1.0","Medium","There is more than one value of PARAMCD for a given value of PARAM","uniqueness-grouped","is_not_unique_relationship(PARAM,PARAMCD)","predicate","2026-04-21T11:50:50Z","unique",NA
"143","CDISC","ADaM-IG","1.0,1.1,1.2,1.3","Medium","PARAMCD has more than 8 characters in length","value-length-le","longer_than(PARAMCD,8)","predicate","2026-04-21T17:32:45Z",NA,NA
"144","CDISC","ADaM-IG","1.0,1.1,1.2,1.3","Medium","PARAMCD starts with a character other than a letter","value-regex-format","not_matches_regex(PARAMCD,^[A-Za-z])","predicate","2026-04-21T17:32:45Z",NA,NA
"145","CDISC","ADaM-IG","1.0,1.1,1.2,1.3","Medium","PARAMCD has characters that are not letters, digits, and underscores","value-regex-format","not_matches_regex(PARAMCD,^[A-Za-z0-9_]+$)","predicate","2026-04-21T17:32:45Z",NA,NA
"146","CDISC","ADaM-IG","1.0","Medium","Within a dataset, there is more than one value of PARAM for a given value of PARAMN","uniqueness-grouped","is_not_unique_relationship(PARAMN,PARAM)","predicate","2026-04-21T15:33:29Z",NA,NA
"147","CDISC","ADaM-IG","1.0","Medium","Within a dataset, there is more than one value of PARAMN for a given value of PARAM","uniqueness-grouped","is_not_unique_relationship(PARAM,PARAMN)","predicate","2026-04-21T15:33:29Z",NA,NA
"149","CDISC","ADaM-IG","1.0","Medium","Within a given value of PARAMCD, there is more than one value of AVALC for a given value of AVAL","uniqueness-grouped-scoped","is_not_unique_relationship(AVAL,AVALC,PARAMCD)","predicate","2026-04-21T16:39:26Z",NA,NA
"150","CDISC","ADaM-IG","1.0","Medium","Within a given value of PARAMCD, there is more than one value of AVAL for a given value of AVALC","uniqueness-grouped-scoped","is_not_unique_relationship(AVALC,AVAL,PARAMCD)","predicate","2026-04-21T16:39:26Z",NA,NA
"159","CDISC","ADaM-IG","1.0,1.1,1.2,1.3","Medium","AWTDIFF is populated and AWTARGET is not populated","value-conditional-populated","non_empty(AWTDIFF) & empty(AWTARGET)","predicate","2026-04-21T11:35:41Z","condition",NA
"16","CDISC","ADaM-IG","1.0,1.1,1.2,1.3","Medium","The length of a variable label is greater than 40 characters","metadata-var-label-length","any_var_label_exceeds_length(40)","predicate","2026-04-21T17:40:33Z",NA,NA
"163","CDISC","ADaM-IG","1.0,1.1,1.2,1.3","Medium","BTOXGR is present and ATOXGR is not present","presence-pair","exists(BTOXGR) & not_exists(ATOXGR)","predicate","2026-04-21T09:19:57Z","find",NA
"164","CDISC","ADaM-IG","1.0,1.1,1.2,1.3","Medium","BTOXGR is present and ABLFL is not present","presence-pair","exists(BTOXGR) & not_exists(ABLFL)","predicate","2026-04-21T09:19:57Z","find",NA
"166","CDISC","ADaM-IG","1.0,1.1,1.2,1.3","Medium","BNRIND is present and ANRIND is not present","presence-pair","exists(BNRIND) & not_exists(ANRIND)","predicate","2026-04-21T09:19:57Z","find",NA
"167","CDISC","ADaM-IG","1.0,1.1,1.2,1.3","Medium","BNRIND is present and ABLFL is not present","presence-pair","exists(BNRIND) & not_exists(ABLFL)","predicate","2026-04-21T09:19:57Z","find",NA
"17","CDISC","ADaM-IG","1.0,1.1,1.2,1.3","Medium","The length of a character value is greater than 200 characters","value-all-vars-length-le","any_value_exceeds_length(200)","predicate","2026-04-21T17:40:33Z",NA,NA
"194","CDISC","ADaM-IG","1.0,1.1,1.2,1.3","Medium","PARAM is not present","presence-required","not_exists(PARAM)","predicate","2026-04-21T11:26:53Z","required",NA
"195","CDISC","ADaM-IG","1.0,1.1,1.2,1.3","Medium","PARAMCD is not present","presence-required","not_exists(PARAMCD)","predicate","2026-04-21T11:26:53Z","required",NA
"196","CDISC","ADaM-IG","1.0,1.1,1.2,1.3","Medium","PARAM is not populated","value-populated-required","empty(PARAM)","predicate","2026-04-21T17:32:45Z",NA,NA
"197","CDISC","ADaM-IG","1.0,1.1,1.2,1.3","Medium","PARAMCD is not populated","value-populated-required","empty(PARAMCD)","predicate","2026-04-21T17:32:45Z",NA,NA
"201","CDISC","ADaM-IG","1.0,1.1,1.2,1.3","Medium","TRTAGyN is present and TRTAGy is not present","presence-pair","exists(TRTAGyN) & not_exists(TRTAGy)","predicate","2026-04-21T10:17:01Z","find","xx/y-indexed via expand: key"
"223","CDISC","ADaM-IG","1.0,1.1,1.2,1.3","Medium","Within a given value of PARAMCD for a subject, CHG is populated and is not equal to AVAL - BASE","value-arith-check","is_not_diff(CHG,AVAL,BASE)","predicate","2026-04-21T16:38:04Z",NA,NA
"225","CDISC","ADaM-IG","1.0,1.1,1.2,1.3","Medium","Within a given value of PARAMCD for a subject, PCHG is populated and is not equal to ((AVAL - BASE)/BASE)*100","value-arith-check","is_not_pct_diff(PCHG,AVAL,BASE)","predicate","2026-04-21T16:38:04Z",NA,NA
"227","CDISC","ADaM-IG","1.0","Medium","There is more than one value of TRTSEQP for a given value of TRTSEQPN","uniqueness-grouped","is_not_unique_relationship(TRTSEQPN,TRTSEQP)","predicate","2026-04-21T11:50:50Z","unique",NA
"228","CDISC","ADaM-IG","1.0","Medium","There is more than one value of TRTSEQPN for a given value of TRTSEQP","uniqueness-grouped","is_not_unique_relationship(TRTSEQP,TRTSEQPN)","predicate","2026-04-21T11:50:50Z","unique",NA
"229","CDISC","ADaM-IG","1.0","Medium","There is more than one value of TRTSEQA for a given value of TRTSEQAN","uniqueness-grouped","is_not_unique_relationship(TRTSEQAN,TRTSEQA)","predicate","2026-04-21T11:50:50Z","unique",NA
"230","CDISC","ADaM-IG","1.0","Medium","There is more than one value of TRTSEQAN for a given value of TRTSEQA","uniqueness-grouped","is_not_unique_relationship(TRTSEQA,TRTSEQAN)","predicate","2026-04-21T11:50:50Z","unique",NA
"261","CDISC","ADaM-IG","1.0,1.1,1.2,1.3","Medium","AEDECOD is not present","presence-required","not_exists(AEDECOD)","predicate","2026-04-21T11:26:53Z","required",NA
"262","CDISC","ADaM-IG","1.0,1.1,1.2,1.3","Medium","AEBODSYS is not present","presence-required","not_exists(AEBODSYS)","predicate","2026-04-21T11:26:53Z","required",NA
"268","CDISC","ADaM-IG","1.0,1.1,1.2,1.3","Medium","ADURN is populated and ADURU is not populated","value-conditional-populated","non_empty(ADURN) & empty(ADURU)","predicate","2026-04-21T11:35:41Z","condition",NA
"278","CDISC","ADaM-IG","1.0,1.1,1.2,1.3","Medium","AESER is not present","presence-required","not_exists(AESER)","predicate","2026-04-21T11:26:53Z","required",NA
"280","CDISC","ADaM-IG","1.0","Medium","There is more than one value of AESEV for a given value of AESEVN","uniqueness-grouped","is_not_unique_relationship(AESEVN,AESEV)","predicate","2026-04-21T11:50:50Z","unique",NA
"281","CDISC","ADaM-IG","1.0","Medium","There is more than one value of AESEVN for a given value of AESEV","uniqueness-grouped","is_not_unique_relationship(AESEV,AESEVN)","predicate","2026-04-21T11:50:50Z","unique",NA
"283","CDISC","ADaM-IG","1.0","Medium","There is more than one value of ASEV for a given value of ASEVN","uniqueness-grouped","is_not_unique_relationship(ASEVN,ASEV)","predicate","2026-04-21T11:50:50Z","unique",NA
"284","CDISC","ADaM-IG","1.0","Medium","There is more than one value of ASEVN for a given value of ASEV","uniqueness-grouped","is_not_unique_relationship(ASEV,ASEVN)","predicate","2026-04-21T11:50:50Z","unique",NA
"285","CDISC","ADaM-IG","1.0","Medium","There is more than one value of SEVGRy for a given value of SEVGRyN","uniqueness-grouped","is_not_unique_relationship(SEVGRyN,SEVGRy)","predicate","2026-04-21T15:33:29Z",NA,NA
"286","CDISC","ADaM-IG","1.0","Medium","There is more than one value of SEVGRyN for a given value of SEVGRy","uniqueness-grouped","is_not_unique_relationship(SEVGRy,SEVGRyN)","predicate","2026-04-21T15:33:29Z",NA,NA
"287","CDISC","ADaM-IG","1.0","Medium","There is more than one value of AEREL for a given value of AERELN","uniqueness-grouped","is_not_unique_relationship(AERELN,AEREL)","predicate","2026-04-21T11:50:50Z","unique",NA
"288","CDISC","ADaM-IG","1.0","Medium","There is more than one value of AERELN for a given value of AEREL","uniqueness-grouped","is_not_unique_relationship(AEREL,AERELN)","predicate","2026-04-21T11:50:50Z","unique",NA
"289","CDISC","ADaM-IG","1.0","Medium","There is more than one value of AREL for a given value of ARELN","uniqueness-grouped","is_not_unique_relationship(ARELN,AREL)","predicate","2026-04-21T11:50:50Z","unique",NA
"290","CDISC","ADaM-IG","1.0","Medium","There is more than one value of ARELN for a given value of AREL","uniqueness-grouped","is_not_unique_relationship(AREL,ARELN)","predicate","2026-04-21T11:50:50Z","unique",NA
"291","CDISC","ADaM-IG","1.0","Medium","There is more than one value of RELGRy for a given value of RELGRyN","uniqueness-grouped","is_not_unique_relationship(RELGRyN,RELGRy)","predicate","2026-04-21T15:33:29Z",NA,NA
"292","CDISC","ADaM-IG","1.0","Medium","There is more than one value of RELGRyN for a given value of RELGRy","uniqueness-grouped","is_not_unique_relationship(RELGRy,RELGRyN)","predicate","2026-04-21T15:33:29Z",NA,NA
"293","CDISC","ADaM-IG","1.0","Medium","There is more than one value of AETOXGR for a given value of AETOXGRN","uniqueness-grouped","is_not_unique_relationship(AETOXGRN,AETOXGR)","predicate","2026-04-21T11:50:50Z","unique",NA
"294","CDISC","ADaM-IG","1.0","Medium","There is more than one value of AETOXGRN for a given value of AETOXGR","uniqueness-grouped","is_not_unique_relationship(AETOXGR,AETOXGRN)","predicate","2026-04-21T11:50:50Z","unique",NA
"295","CDISC","ADaM-IG","1.0","Medium","There is more than one value of ATOXGR for a given value of ATOXGRN","uniqueness-grouped","is_not_unique_relationship(ATOXGRN,ATOXGR)","predicate","2026-04-21T11:50:50Z","unique",NA
"296","CDISC","ADaM-IG","1.0","Medium","There is more than one value of ATOXGRN for a given value of ATOXGR","uniqueness-grouped","is_not_unique_relationship(ATOXGR,ATOXGRN)","predicate","2026-04-21T11:50:50Z","unique",NA
"297","CDISC","ADaM-IG","1.0","Medium","There is more than one value of TOXGGRy for a given value of TOXGGRyN","uniqueness-grouped","is_not_unique_relationship(TOXGGRyN,TOXGGRy)","predicate","2026-04-21T15:33:29Z",NA,NA
"298","CDISC","ADaM-IG","1.0","Medium","There is more than one value of TOXGGRyN for a given value of TOXGGRy","uniqueness-grouped","is_not_unique_relationship(TOXGGRy,TOXGGRyN)","predicate","2026-04-21T15:33:29Z",NA,NA
"310","CDISC","ADaM-IG","1.0","Medium","There is more than one value of SMQzzSC for a given value of SMQzzSCN","uniqueness-grouped","is_not_unique_relationship(SMQzzSCN,SMQzzSC)","predicate","2026-04-21T15:33:29Z",NA,NA
"311","CDISC","ADaM-IG","1.0","Medium","There is more than one value of SMQzzSCN for a given value of SMQzzSC","uniqueness-grouped","is_not_unique_relationship(SMQzzSC,SMQzzSCN)","predicate","2026-04-21T15:33:29Z",NA,NA
"320","CDISC","ADaM-IG","1.0,1.1,1.2,1.3","Medium","A dataset is named ADSL and the dataset label is not ""Subject-Level Analysis Dataset""","dataset-label-match","dataset_label_not(Subject-Level Analysis Dataset)","predicate","2026-04-21T20:10:58Z",NA,NA
"359","CDISC","ADaM-IG","1.1,1.2,1.3","Medium","There is more than one value of DTHCAUS for a given value of DTHCAUSN, considering only those rows on which both variables are populated","uniqueness-grouped","is_not_unique_relationship(DTHCAUSN,DTHCAUS)","predicate","2026-04-21T11:50:50Z","unique",NA
"360","CDISC","ADaM-IG","1.1,1.2,1.3","Medium","There is more than one value of DTHCAUSN for a given value of DTHCAUS, considering only those rows on which both variables are populated","uniqueness-grouped","is_not_unique_relationship(DTHCAUS,DTHCAUSN)","predicate","2026-04-21T11:50:50Z","unique",NA
"373","CDISC","ADaM-IG","1.0,1.1,1.2,1.3","Medium","CNSR is not present","presence-required","not_exists(CNSR)","predicate","2026-04-21T11:26:53Z","required",NA
"374","CDISC","ADaM-IG","1.0,1.1,1.2,1.3","Medium","AVAL is not present","presence-required","not_exists(AVAL)","predicate","2026-04-21T11:26:53Z","required",NA
"375","CDISC","ADaM-IG","1.2,1.3","Medium","On a given record, a variable which has a suffix of GRyN is populated and a variable with the same root name and suffix of GRy is not populated","value-pair-coupled","non_empty(stemGRyN) & empty(stemGRy)","predicate","2026-04-21T13:23:22Z",NA,NA
"376","CDISC","ADaM-IG","1.2,1.3","Medium","On a given record, a variable which has a suffix of GRy is populated and a variable with the same root name and suffix of GRyN is not populated","value-pair-coupled","non_empty(stemGRy) & empty(stemGRyN)","predicate","2026-04-21T13:23:22Z",NA,NA
"377","CDISC","ADaM-IG","1.2,1.3","Medium","On a given record, TRTxxP is populated and TRTxxPN is not populated","value-pair-coupled","non_empty(TRTxxP) & empty(TRTxxPN)","predicate","2026-04-21T13:12:28Z",NA,NA
"378","CDISC","ADaM-IG","1.2,1.3","Medium","On a given record, TRTxxPN is populated and TRTxxP is not populated","value-pair-coupled","non_empty(TRTxxPN) & empty(TRTxxP)","predicate","2026-04-21T13:12:28Z",NA,NA
"379","CDISC","ADaM-IG","1.2,1.3","Medium","On a given record, BTOXGRN is populated and BTOXGR is not populated","value-conditional-populated","non_empty(BTOXGRN) & empty(BTOXGR)","predicate","2026-04-21T11:35:41Z","condition",NA
"380","CDISC","ADaM-IG","1.2,1.3","Medium","On a given record, BTOXGR is populated and BTOXGRN is not populated","value-conditional-populated","non_empty(BTOXGR) & empty(BTOXGRN)","predicate","2026-04-21T11:35:41Z","condition",NA
"385","CDISC","ADaM-IG","1.2,1.3","Medium","On a given record, BTOXGRL is populated and BTOXGRLN is not populated","value-conditional-populated","non_empty(BTOXGRL) & empty(BTOXGRLN)","predicate","2026-04-21T11:35:41Z","condition",NA
"386","CDISC","ADaM-IG","1.2,1.3","Medium","On a given record, BTOXGRLN is populated and BTOXGRL is not populated","value-conditional-populated","non_empty(BTOXGRLN) & empty(BTOXGRL)","predicate","2026-04-21T11:35:41Z","condition",NA
"389","CDISC","ADaM-IG","1.2,1.3","Medium","On a given record, BTOXGRH is populated and BTOXGRHN is not populated","value-conditional-populated","non_empty(BTOXGRH) & empty(BTOXGRHN)","predicate","2026-04-21T11:35:41Z","condition",NA
"390","CDISC","ADaM-IG","1.2,1.3","Medium","On a given record, BTOXGRHN is populated and BTOXGRH is not populated","value-conditional-populated","non_empty(BTOXGRHN) & empty(BTOXGRH)","predicate","2026-04-21T11:35:41Z","condition",NA
"391","CDISC","ADaM-IG","1.2,1.3","Medium","On a given record, ATOXGR is populated and ATOXGRN is not populated","value-conditional-populated","non_empty(ATOXGR) & empty(ATOXGRN)","predicate","2026-04-21T11:35:41Z","condition",NA
"392","CDISC","ADaM-IG","1.2,1.3","Medium","On a given record, ATOXGRN is populated and ATOXGR is not populated","value-conditional-populated","non_empty(ATOXGRN) & empty(ATOXGR)","predicate","2026-04-21T11:35:41Z","condition",NA
"393","CDISC","ADaM-IG","1.2,1.3","Medium","On a given record, ATOXGRL is populated and ATOXGRLN is not populated","value-conditional-populated","non_empty(ATOXGRL) & empty(ATOXGRLN)","predicate","2026-04-21T11:35:41Z","condition",NA
"394","CDISC","ADaM-IG","1.2,1.3","Medium","On a given record, ATOXGRLN is populated and ATOXGRL is not populated","value-conditional-populated","non_empty(ATOXGRLN) & empty(ATOXGRL)","predicate","2026-04-21T11:35:41Z","condition",NA
"397","CDISC","ADaM-IG","1.2,1.3","Medium","On a given record, ATOXGRH is populated and ATOXGRHN is not populated","value-conditional-populated","non_empty(ATOXGRH) & empty(ATOXGRHN)","predicate","2026-04-21T11:35:41Z","condition",NA
"398","CDISC","ADaM-IG","1.2,1.3","Medium","On a given record, ATOXGRHN is populated and ATOXGRH is not populated","value-conditional-populated","non_empty(ATOXGRHN) & empty(ATOXGRH)","predicate","2026-04-21T11:35:41Z","condition",NA
"407","CDISC","ADaM-IG","1.2,1.3","Medium","On a given record, ABLFN is populated and ABLFL is not populated","value-conditional-populated","non_empty(ABLFN) & empty(ABLFL)","predicate","2026-04-21T11:35:41Z","condition",NA
"408","CDISC","ADaM-IG","1.2,1.3","Medium","On a given record, ABLFL is populated and ABLFN is not populated","value-conditional-populated","non_empty(ABLFL) & empty(ABLFN)","predicate","2026-04-21T11:35:41Z","condition",NA
"409","CDISC","ADaM-IG","1.2,1.3","Medium","There is more than one value of ABLFN for a given value of ABLFL, considering only those rows on which both variables are populated","uniqueness-grouped","is_not_unique_relationship(ABLFL,ABLFN)","predicate","2026-04-21T11:50:50Z","unique",NA
"410","CDISC","ADaM-IG","1.2,1.3","Medium","There is more than one value of ABLFL for a given value of ABLFN, considering only those rows on which both variables are populated","uniqueness-grouped","is_not_unique_relationship(ABLFN,ABLFL)","predicate","2026-04-21T11:50:50Z","unique",NA
"411","CDISC","ADaM-IG","1.2,1.3","Medium","On a given record, ANLzzFN is populated and ANLzzFL is not populated","value-pair-coupled","non_empty(ANLzzFN) & empty(ANLzzFL)","predicate","2026-04-21T13:12:28Z",NA,NA
"412","CDISC","ADaM-IG","1.2,1.3","Medium","On a given record, ANLzzFL is populated and ANLzzFN is not populated","value-pair-coupled","non_empty(ANLzzFL) & empty(ANLzzFN)","predicate","2026-04-21T13:12:28Z",NA,NA
"415","CDISC","ADaM-IG","1.2,1.3","Medium","On a given record, TRTSEQPN is populated and TRTSEQP is not populated","value-conditional-populated","non_empty(TRTSEQPN) & empty(TRTSEQP)","predicate","2026-04-21T11:35:41Z","condition",NA
"416","CDISC","ADaM-IG","1.2,1.3","Medium","On a given record, TRTSEQP is populated and TRTSEQPN is not populated","value-conditional-populated","non_empty(TRTSEQP) & empty(TRTSEQPN)","predicate","2026-04-21T11:35:41Z","condition",NA
"417","CDISC","ADaM-IG","1.2,1.3","Medium","On a given record, TRTSEQAN is populated and TRTSEQA is not populated","value-conditional-populated","non_empty(TRTSEQAN) & empty(TRTSEQA)","predicate","2026-04-21T11:35:41Z","condition",NA
"418","CDISC","ADaM-IG","1.2,1.3","Medium","On a given record, TRTSEQA is populated and TRTSEQAN is not populated","value-conditional-populated","non_empty(TRTSEQA) & empty(TRTSEQAN)","predicate","2026-04-21T11:35:41Z","condition",NA
"419","CDISC","ADaM-IG","1.2,1.3","Medium","On a given record, TRxxPGyN is populated and TRxxPGy is not populated","value-pair-coupled","non_empty(TRxxPGyN) & empty(TRxxPGy)","predicate","2026-04-21T13:23:22Z",NA,NA
"420","CDISC","ADaM-IG","1.2,1.3","Medium","On a given record, TRxxPGy is populated and TRxxPGyN is not populated","value-pair-coupled","non_empty(TRxxPGy) & empty(TRxxPGyN)","predicate","2026-04-21T13:23:22Z",NA,NA
"421","CDISC","ADaM-IG","1.2,1.3","Medium","On a given record, TRxxAGyN is populated and TRxxAGy is not populated","value-pair-coupled","non_empty(TRxxAGyN) & empty(TRxxAGy)","predicate","2026-04-21T13:23:22Z",NA,NA
"422","CDISC","ADaM-IG","1.2,1.3","Medium","On a given record, TRxxAGy is populated and TRxxAGyN is not populated","value-pair-coupled","non_empty(TRxxAGy) & empty(TRxxAGyN)","predicate","2026-04-21T13:23:22Z",NA,NA
"423","CDISC","ADaM-IG","1.2,1.3","Medium","On a given record, TRTPGyN is populated and TRTPGy is not populated","value-pair-coupled","non_empty(TRTPGyN) & empty(TRTPGy)","predicate","2026-04-21T13:12:28Z",NA,NA
"424","CDISC","ADaM-IG","1.2,1.3","Medium","On a given record, TRTPGy is populated and TRTPGyN is not populated","value-pair-coupled","non_empty(TRTPGy) & empty(TRTPGyN)","predicate","2026-04-21T13:12:28Z",NA,NA
"425","CDISC","ADaM-IG","1.2,1.3","Medium","On a given record, TRTAGy is populated and TRTAGyN is not populated","value-pair-coupled","non_empty(TRTAGy) & empty(TRTAGyN)","predicate","2026-04-21T13:12:28Z",NA,NA
"426","CDISC","ADaM-IG","1.2,1.3","Medium","On a given record, TRTAGyN is populated and TRTAGy is not populated","value-pair-coupled","non_empty(TRTAGyN) & empty(TRTAGy)","predicate","2026-04-21T13:12:28Z",NA,NA
"427","CDISC","ADaM-IG","1.2,1.3","Medium","On a given record, TRTxxA is populated and TRTxxAN is not populated","value-pair-coupled","non_empty(TRTxxA) & empty(TRTxxAN)","predicate","2026-04-21T13:12:28Z",NA,NA
"428","CDISC","ADaM-IG","1.2,1.3","Medium","On a given record, TRTxxAN is populated and TRTxxA is not populated","value-pair-coupled","non_empty(TRTxxAN) & empty(TRTxxA)","predicate","2026-04-21T13:12:28Z",NA,NA
"429","CDISC","ADaM-IG","1.2,1.3","Medium","On a given record, APERIOD is populated and APERIODC is not populated","value-conditional-populated","non_empty(APERIOD) & empty(APERIODC)","predicate","2026-04-21T11:35:41Z","condition",NA
"430","CDISC","ADaM-IG","1.2,1.3","Medium","On a given record, APERIODC is populated and APERIOD is not populated","value-conditional-populated","non_empty(APERIODC) & empty(APERIOD)","predicate","2026-04-21T11:35:41Z","condition",NA
"431","CDISC","ADaM-IG","1.2,1.3","Medium","On a given record, APHASE is populated and APHASEN is not populated","value-conditional-populated","non_empty(APHASE) & empty(APHASEN)","predicate","2026-04-21T11:35:41Z","condition",NA
"432","CDISC","ADaM-IG","1.2,1.3","Medium","On a given record, APHASEN is populated and APHASE is not populated","value-conditional-populated","non_empty(APHASEN) & empty(APHASE)","predicate","2026-04-21T11:35:41Z","condition",NA
"433","CDISC","ADaM-IG","1.2,1.3","Medium","On a given record, ASPER is populated and ASPERC is not populated","value-conditional-populated","non_empty(ASPER) & empty(ASPERC)","predicate","2026-04-21T11:35:41Z","condition",NA
"434","CDISC","ADaM-IG","1.2,1.3","Medium","On a given record, ASPERC is populated and ASPER is not populated","value-conditional-populated","non_empty(ASPERC) & empty(ASPER)","predicate","2026-04-21T11:35:41Z","condition",NA
"435","CDISC","ADaM-IG","1.2,1.3","Medium","On a given record, ATPT is populated and ATPTN is not populated","value-conditional-populated","non_empty(ATPT) & empty(ATPTN)","predicate","2026-04-21T11:35:41Z","condition",NA
"436","CDISC","ADaM-IG","1.2,1.3","Medium","On a given record, ATPTN is populated and ATPT is not populated","value-conditional-populated","non_empty(ATPTN) & empty(ATPT)","predicate","2026-04-21T11:35:41Z","condition",NA
"437","CDISC","ADaM-IG","1.2,1.3","Medium","On a given record, AVALCATy is populated and AVALCAyN is not populated","value-pair-coupled","non_empty(AVALCATy) & empty(AVALCAyN)","predicate","2026-04-21T13:12:28Z",NA,NA
"438","CDISC","ADaM-IG","1.2,1.3","Medium","On a given record, AVALCAyN is populated and AVALCATy is not populated","value-pair-coupled","non_empty(AVALCAyN) & empty(AVALCATy)","predicate","2026-04-21T13:12:28Z",NA,NA
"439","CDISC","ADaM-IG","1.2,1.3","Medium","On a given record, BASECATy is populated and BASECAyN is not populated","value-pair-coupled","non_empty(BASECATy) & empty(BASECAyN)","predicate","2026-04-21T13:12:28Z",NA,NA
"440","CDISC","ADaM-IG","1.2,1.3","Medium","On a given record, BASECAyN is populated and BASECATy is not populated","value-pair-coupled","non_empty(BASECAyN) & empty(BASECATy)","predicate","2026-04-21T13:12:28Z",NA,NA
"441","CDISC","ADaM-IG","1.2,1.3","Medium","On a given record, CHGCATy is populated and CHGCATyN is not populated","value-pair-coupled","non_empty(CHGCATy) & empty(CHGCATyN)","predicate","2026-04-21T13:12:28Z",NA,NA
"442","CDISC","ADaM-IG","1.2,1.3","Medium","On a given record, CHGCATyN is populated and CHGCATy is not populated","value-pair-coupled","non_empty(CHGCATyN) & empty(CHGCATy)","predicate","2026-04-21T13:12:28Z",NA,NA
"443","CDISC","ADaM-IG","1.2,1.3","Medium","On a given record, PCHGCATy is populated and PCHGCAyN is not populated","value-pair-coupled","non_empty(PCHGCATy) & empty(PCHGCAyN)","predicate","2026-04-21T13:12:28Z",NA,NA
"444","CDISC","ADaM-IG","1.2,1.3","Medium","On a given record, PCHGCAyN is populated and PCHGCATy is not populated","value-pair-coupled","non_empty(PCHGCAyN) & empty(PCHGCATy)","predicate","2026-04-21T13:12:28Z",NA,NA
"445","CDISC","ADaM-IG","1.2,1.3","Medium","On a given record, PARCATy is populated and PARCATyN is not populated","value-pair-coupled","non_empty(PARCATy) & empty(PARCATyN)","predicate","2026-04-21T13:12:28Z",NA,NA
"446","CDISC","ADaM-IG","1.2,1.3","Medium","On a given record, PARCATyN is populated and PARCATy is not populated","value-pair-coupled","non_empty(PARCATyN) & empty(PARCATy)","predicate","2026-04-21T13:12:28Z",NA,NA
"447","CDISC","ADaM-IG","1.2,1.3","Medium","On a given record, AVISITN is populated and AVISIT is not populated","value-conditional-populated","non_empty(AVISITN) & empty(AVISIT)","predicate","2026-04-21T11:35:41Z","condition",NA
"448","CDISC","ADaM-IG","1.2,1.3","Medium","On a given record, DTHCAUS is populated and DTHCAUSN is not populated","value-conditional-populated","non_empty(DTHCAUS) & empty(DTHCAUSN)","predicate","2026-04-21T11:35:41Z","condition",NA
"449","CDISC","ADaM-IG","1.2,1.3","Medium","On a given record, DTHCAUSN is populated and DTHCAUS is not populated","value-conditional-populated","non_empty(DTHCAUSN) & empty(DTHCAUS)","predicate","2026-04-21T11:35:41Z","condition",NA
"450","CDISC","ADaM-IG","1.2,1.3","Medium","On a given record, MCRITyML is populated and MCRITyMN is not populated","value-pair-coupled","non_empty(MCRITyML) & empty(MCRITyMN)","predicate","2026-04-21T13:12:28Z",NA,NA
"451","CDISC","ADaM-IG","1.2,1.3","Medium","On a given record, MCRITyMN is populated and MCRITyML is not populated","value-pair-coupled","non_empty(MCRITyMN) & empty(MCRITyML)","predicate","2026-04-21T13:12:28Z",NA,NA
"452","CDISC","ADaM-IG","1.2,1.3","Medium","On a given record, REGIONy is populated and REGIONyN is not populated","value-pair-coupled","non_empty(REGIONy) & empty(REGIONyN)","predicate","2026-04-21T13:12:28Z",NA,NA
"453","CDISC","ADaM-IG","1.2,1.3","Medium","On a given record, REGIONyN is populated and REGIONy is not populated","value-pair-coupled","non_empty(REGIONyN) & empty(REGIONy)","predicate","2026-04-21T13:12:28Z",NA,NA
"454","CDISC","ADaM-IG","1.2,1.3","Medium","On a given record, SHIFTy is populated and SHIFTyN is not populated","value-pair-coupled","non_empty(SHIFTy) & empty(SHIFTyN)","predicate","2026-04-21T13:12:28Z",NA,NA
"455","CDISC","ADaM-IG","1.2,1.3","Medium","On a given record, SHIFTyN is populated and SHIFTy is not populated","value-pair-coupled","non_empty(SHIFTyN) & empty(SHIFTy)","predicate","2026-04-21T13:12:28Z",NA,NA
"456","CDISC","ADaM-IG","1.2,1.3","Medium","On a given record, TRTA is populated and TRTAN is not populated","value-conditional-populated","non_empty(TRTA) & empty(TRTAN)","predicate","2026-04-21T11:35:41Z","condition",NA
"457","CDISC","ADaM-IG","1.2,1.3","Medium","On a given record, TRTAN is populated and TRTA is not populated","value-conditional-populated","non_empty(TRTAN) & empty(TRTA)","predicate","2026-04-21T11:35:41Z","condition",NA
"458","CDISC","ADaM-IG","1.2,1.3","Medium","On a given record, TRTP is populated and TRTPN is not populated","value-conditional-populated","non_empty(TRTP) & empty(TRTPN)","predicate","2026-04-21T11:35:41Z","condition",NA
"459","CDISC","ADaM-IG","1.2,1.3","Medium","On a given record, TRTPN is populated and TRTP is not populated","value-conditional-populated","non_empty(TRTPN) & empty(TRTP)","predicate","2026-04-21T11:35:41Z","condition",NA
"460","CDISC","ADaM-IG","1.2,1.3","Medium","On a given record, TSEQPGy is populated and TSEQPGyN is not populated","value-pair-coupled","non_empty(TSEQPGy) & empty(TSEQPGyN)","predicate","2026-04-21T13:12:28Z",NA,NA
"461","CDISC","ADaM-IG","1.2,1.3","Medium","On a given record, TSEQPGyN is populated and TSEQPGy is not populated","value-pair-coupled","non_empty(TSEQPGyN) & empty(TSEQPGy)","predicate","2026-04-21T13:12:28Z",NA,NA
"462","CDISC","ADaM-IG","1.2,1.3","Medium","On a given record, TSEQAGy is populated and TSEQAGyN is not populated","value-pair-coupled","non_empty(TSEQAGy) & empty(TSEQAGyN)","predicate","2026-04-21T13:12:28Z",NA,NA
"463","CDISC","ADaM-IG","1.2,1.3","Medium","On a given record, TSEQAGyN is populated and TSEQAGy is not populated","value-pair-coupled","non_empty(TSEQAGyN) & empty(TSEQAGy)","predicate","2026-04-21T13:12:28Z",NA,NA
"464","CDISC","ADaM-IG","1.2,1.3","Medium","On a given record, TRCMPGy is populated and TRCMPGyN is not populated","value-pair-coupled","non_empty(TRCMPGy) & empty(TRCMPGyN)","predicate","2026-04-21T13:12:28Z",NA,NA
"465","CDISC","ADaM-IG","1.2,1.3","Medium","On a given record, TRCMPGyN is populated and TRCMPGy is not populated","value-pair-coupled","non_empty(TRCMPGyN) & empty(TRCMPGy)","predicate","2026-04-21T13:12:28Z",NA,NA
"466","CDISC","ADaM-IG","1.2,1.3","Medium","On a given record, STRATAR is populated and STRATARN is not populated","value-conditional-populated","non_empty(STRATAR) & empty(STRATARN)","predicate","2026-04-21T11:35:41Z","condition",NA
"467","CDISC","ADaM-IG","1.2,1.3","Medium","On a given record, STRATARN is populated and STRATAR is not populated","value-conditional-populated","non_empty(STRATARN) & empty(STRATAR)","predicate","2026-04-21T11:35:41Z","condition",NA
"468","CDISC","ADaM-IG","1.2,1.3","Medium","There is more than one value of STRATAR for a given value of STRATARN, considering only those rows on which both variables are populated","uniqueness-grouped","is_not_unique_relationship(STRATARN,STRATAR)","predicate","2026-04-21T11:50:50Z","unique",NA
"469","CDISC","ADaM-IG","1.2,1.3","Medium","There is more than one value of STRATARN for a given value of STRATAR, considering only those rows on which both variables are populated","uniqueness-grouped","is_not_unique_relationship(STRATAR,STRATARN)","predicate","2026-04-21T11:50:50Z","unique",NA
"47","CDISC","ADaM-IG","1.0,1.1,1.2,1.3","Medium","SITEID is not present within ADSL","presence-required","not_exists(SITEID)","predicate","2026-04-21T13:35:21Z",NA,NA
"470","CDISC","ADaM-IG","1.2,1.3","Medium","On a given record, STRATwR is populated and STRATwRN is not populated","value-pair-coupled","non_empty(STRATwR) & empty(STRATwRN)","predicate","2026-04-21T13:12:28Z",NA,NA
"471","CDISC","ADaM-IG","1.2,1.3","Medium","On a given record, STRATwRN is populated and STRATwR is not populated","value-pair-coupled","non_empty(STRATwRN) & empty(STRATwR)","predicate","2026-04-21T13:12:28Z",NA,NA
"474","CDISC","ADaM-IG","1.2,1.3","Medium","On a given record, STRATAV is populated and STRATAVN is not populated","value-conditional-populated","non_empty(STRATAV) & empty(STRATAVN)","predicate","2026-04-21T11:35:41Z","condition",NA
"475","CDISC","ADaM-IG","1.2,1.3","Medium","On a given record, STRATAVN is populated and STRATAV is not populated","value-conditional-populated","non_empty(STRATAVN) & empty(STRATAV)","predicate","2026-04-21T11:35:41Z","condition",NA
"476","CDISC","ADaM-IG","1.2,1.3","Medium","There is more than one value of STRATAV for a given value of STRATAVN, considering only those rows on which both variables are populated","uniqueness-grouped","is_not_unique_relationship(STRATAVN,STRATAV)","predicate","2026-04-21T11:50:50Z","unique",NA
"477","CDISC","ADaM-IG","1.2,1.3","Medium","There is more than one value of STRATAVN for a given value of STRATAV, considering only those rows on which both variables are populated","uniqueness-grouped","is_not_unique_relationship(STRATAV,STRATAVN)","predicate","2026-04-21T11:50:50Z","unique",NA
"478","CDISC","ADaM-IG","1.2,1.3","Medium","On a given record, STRATwV is populated and STRATwVN is not populated","value-pair-coupled","non_empty(STRATwV) & empty(STRATwVN)","predicate","2026-04-21T13:12:28Z",NA,NA
"479","CDISC","ADaM-IG","1.2,1.3","Medium","On a given record, STRATwVN is populated and STRATwV is not populated","value-pair-coupled","non_empty(STRATwVN) & empty(STRATwV)","predicate","2026-04-21T13:12:28Z",NA,NA
"48","CDISC","ADaM-IG","1.0,1.1,1.2,1.3","Medium","A variable with a suffix of FL is not present in ADSL","dataset-suffix-var-required","no_var_with_suffix(FL)","predicate","2026-04-21T20:10:58Z",NA,NA
"482","CDISC","ADaM-IG","1.2,1.3","Medium","On a given record, BCHGCATy is populated and BCHGCAyN is not populated","value-pair-coupled","non_empty(BCHGCATy) & empty(BCHGCAyN)","predicate","2026-04-21T13:12:28Z",NA,NA
"483","CDISC","ADaM-IG","1.2,1.3","Medium","On a given record, BCHGCAyN is populated and BCHGCATy is not populated","value-pair-coupled","non_empty(BCHGCAyN) & empty(BCHGCATy)","predicate","2026-04-21T13:12:28Z",NA,NA
"484","CDISC","ADaM-IG","1.2,1.3","Medium","On a given record, PBCHGCAy is populated and PBCHGCyN is not populated","value-pair-coupled","non_empty(PBCHGCAy) & empty(PBCHGCyN)","predicate","2026-04-21T13:12:28Z",NA,NA
"485","CDISC","ADaM-IG","1.2,1.3","Medium","On a given record, PBCHGCyN is populated and PBCHGCAy is not populated","value-pair-coupled","non_empty(PBCHGCyN) & empty(PBCHGCAy)","predicate","2026-04-21T13:12:28Z",NA,NA
"486","CDISC","ADaM-IG","1.2,1.3","Medium","On a given record, CRITyFL is populated and CRITyFN is not populated","value-pair-coupled","non_empty(CRITyFL) & empty(CRITyFN)","predicate","2026-04-21T13:12:28Z",NA,NA
"487","CDISC","ADaM-IG","1.2,1.3","Medium","On a given record, CRITyFN is populated and CRITyFL is not populated","value-pair-coupled","non_empty(CRITyFN) & empty(CRITyFL)","predicate","2026-04-21T13:12:28Z",NA,NA
"488","CDISC","ADaM-IG","1.2,1.3","Medium","On a given record, ONTRTFL is populated and ONTRTFN is not populated","value-conditional-populated","non_empty(ONTRTFL) & empty(ONTRTFN)","predicate","2026-04-21T11:35:41Z","condition",NA
"489","CDISC","ADaM-IG","1.2,1.3","Medium","On a given record, ONTRTFN is populated and ONTRTFL is not populated","value-conditional-populated","non_empty(ONTRTFN) & empty(ONTRTFL)","predicate","2026-04-21T11:35:41Z","condition",NA
"49","CDISC","ADaM-IG","1.0,1.1,1.2,1.3","Medium","AGE is not present within ADSL","presence-required","not_exists(AGE)","predicate","2026-04-21T13:35:21Z",NA,NA
"490","CDISC","ADaM-IG","1.2,1.3","Medium","On a given record, LVOTFL is populated and LVOTFN is not populated","value-conditional-populated","non_empty(LVOTFL) & empty(LVOTFN)","predicate","2026-04-21T11:35:41Z","condition",NA
"491","CDISC","ADaM-IG","1.2,1.3","Medium","On a given record, LVOTFN is populated and LVOTFL is not populated","value-conditional-populated","non_empty(LVOTFN) & empty(LVOTFL)","predicate","2026-04-21T11:35:41Z","condition",NA
"499","CDISC","ADaM-IG","1.2,1.3","Medium","ASPER is present and APERIOD is not present","presence-pair","exists(ASPER) & not_exists(APERIOD)","predicate","2026-04-21T09:19:57Z","find",NA
"50","CDISC","ADaM-IG","1.0,1.1,1.2,1.3","Medium","AGEU is not present within ADSL","presence-required","not_exists(AGEU)","predicate","2026-04-21T13:35:21Z",NA,NA
"500","CDISC","ADaM-IG","1.2,1.3","Medium","There is a value of APHASE without a matching value in an ADSL variable APHASEw","value-in-subject-indexed-set","value_not_in_subject_indexed_set(APHASE,ADSL,APHASEw)","predicate","2026-04-21T20:10:59Z",NA,NA
"501","CDISC","ADaM-IG","1.2,1.3","Medium","On a given record, ASPER is populated and APERIOD is not populated","value-conditional-populated","non_empty(ASPER) & empty(APERIOD)","predicate","2026-04-21T11:35:41Z","condition",NA
"503","CDISC","ADaM-IG","1.1,1.2,1.3","High","A variable ending in DT must contain ""Date"" in the label","metadata-label-contains","label_by_suffix_missing(DT,Date)","predicate","2026-04-21T12:47:14Z",NA,NA
"504","CDISC","ADaM-IG","1.1,1.2,1.3","High","A variable ending in TM must contain ""Time"" in the label","metadata-label-contains","label_by_suffix_missing(TM,Time)","predicate","2026-04-21T12:47:14Z",NA,NA
"505","CDISC","ADaM-IG","1.1,1.2,1.3","High","A variable ending in DTM must contain ""Datetime"" in the label","metadata-label-contains","label_by_suffix_missing(DTM,Datetime)","predicate","2026-04-21T12:47:14Z",NA,NA
"506","CDISC","ADaM-IG","1.1,1.2,1.3","High","A variable ending in ADY must contain ""Relative Day"" in the label","metadata-label-contains","label_by_suffix_missing(ADY,Relative Day)","predicate","2026-04-21T12:47:14Z",NA,NA
"507","CDISC","ADaM-IG","1.1,1.2,1.3","High","A variable ending in DTF must contain ""Date Imputation Flag"" in the label","metadata-label-contains","label_by_suffix_missing(DTF,Date Imputation Flag)","predicate","2026-04-21T12:47:14Z",NA,NA
"508","CDISC","ADaM-IG","1.1,1.2,1.3","High","A variable ending in TMF must contain ""Time Imputation Flag"" in the label","metadata-label-contains","label_by_suffix_missing(TMF,Time Imputation Flag)","predicate","2026-04-21T12:47:14Z",NA,NA
"509","CDISC","ADaM-IG","1.1,1.2,1.3","High","A variable ending in SDT must contain ""Start Date"" in the label","metadata-label-contains","label_by_suffix_missing(SDT,Start Date)","predicate","2026-04-21T12:47:14Z",NA,NA
"51","CDISC","ADaM-IG","1.0,1.1,1.2,1.3","Medium","SEX is not present within ADSL","presence-required","not_exists(SEX)","predicate","2026-04-21T13:35:21Z",NA,NA
"510","CDISC","ADaM-IG","1.1,1.2,1.3","High","A variable ending in STM must contain ""Start Time"" in the label","metadata-label-contains","label_by_suffix_missing(STM,Start Time)","predicate","2026-04-21T12:47:14Z",NA,NA
"511","CDISC","ADaM-IG","1.1,1.2,1.3","High","A variable ending in SDTM must contain ""Start Datetime"" in the label","metadata-label-contains","label_by_suffix_missing(SDTM,Start Datetime)","predicate","2026-04-21T12:47:14Z",NA,NA
"512","CDISC","ADaM-IG","1.1,1.2,1.3","High","A variable ending in SDY must contain ""Relative Start Day"" in the label","metadata-label-contains","label_by_suffix_missing(SDY,Relative Start Day)","predicate","2026-04-21T12:47:14Z",NA,NA
"513","CDISC","ADaM-IG","1.1,1.2,1.3","High","A variable ending in SDTF must contain ""Start Date Imputation Flag"" in the label","metadata-label-contains","label_by_suffix_missing(SDTF,Start Date Imputation Flag)","predicate","2026-04-21T12:47:14Z",NA,NA
"514","CDISC","ADaM-IG","1.1,1.2,1.3","High","A variable ending in STMF must contain ""Start Time Imputation Flag"" in the label","metadata-label-contains","label_by_suffix_missing(STMF,Start Time Imputation Flag)","predicate","2026-04-21T12:47:14Z",NA,NA
"515","CDISC","ADaM-IG","1.1,1.2,1.3","High","A variable ending in EDT must contain ""End Date"" in the label","metadata-label-contains","label_by_suffix_missing(EDT,End Date)","predicate","2026-04-21T12:47:14Z",NA,NA
"516","CDISC","ADaM-IG","1.1,1.2,1.3","High","A variable ending in ETM must contain ""End Time"" in the label","metadata-label-contains","label_by_suffix_missing(ETM,End Time)","predicate","2026-04-21T12:47:14Z",NA,NA
"517","CDISC","ADaM-IG","1.1,1.2,1.3","High","A variable ending in EDTM must contain ""End Datetime"" in the label","metadata-label-contains","label_by_suffix_missing(EDTM,End Datetime)","predicate","2026-04-21T12:47:14Z",NA,NA
"518","CDISC","ADaM-IG","1.1,1.2,1.3","High","A variable ending in EDY must contain ""Relative End Day"" in the label","metadata-label-contains","label_by_suffix_missing(EDY,Relative End Day)","predicate","2026-04-21T12:47:14Z",NA,NA
"519","CDISC","ADaM-IG","1.1,1.2,1.3","High","A variable ending in EDTF must contain ""End Date Imputation Flag"" in the label","metadata-label-contains","label_by_suffix_missing(EDTF,End Date Imputation Flag)","predicate","2026-04-21T12:47:14Z",NA,NA
"52","CDISC","ADaM-IG","1.0,1.1,1.2,1.3","Medium","RACE is not present within ADSL","presence-required","not_exists(RACE)","predicate","2026-04-21T13:35:21Z",NA,NA
"520","CDISC","ADaM-IG","1.1,1.2,1.3","High","A variable ending in ETMF must contain ""End Time Imputation Flag"" in the label","metadata-label-contains","label_by_suffix_missing(ETMF,End Time Imputation Flag)","predicate","2026-04-21T12:47:14Z",NA,NA
"522","CDISC","ADaM-IG","1.1,1.2,1.3","Medium","BTOXGRN is present and BTOXGR is not present","presence-pair","exists(BTOXGRN) & not_exists(BTOXGR)","predicate","2026-04-21T09:19:57Z","find",NA
"523","CDISC","ADaM-IG","1.1,1.2,1.3","Medium","ATOXGRLN is present and ATOXGRL is not present","presence-pair","exists(ATOXGRLN) & not_exists(ATOXGRL)","predicate","2026-04-21T09:19:57Z","find",NA
"524","CDISC","ADaM-IG","1.1,1.2,1.3","Medium","ATOXGRHN is present and ATOXGRH is not present","presence-pair","exists(ATOXGRHN) & not_exists(ATOXGRH)","predicate","2026-04-21T09:19:57Z","find",NA
"525","CDISC","ADaM-IG","1.1,1.2,1.3","Medium","ABLFN is present and ABLFL is not present","presence-pair","exists(ABLFN) & not_exists(ABLFL)","predicate","2026-04-21T09:19:57Z","find",NA
"527","CDISC","ADaM-IG","1.1,1.2,1.3","Medium","TRTSEQPN is present and TRTSEQP is not present","presence-pair","exists(TRTSEQPN) & not_exists(TRTSEQP)","predicate","2026-04-21T09:19:57Z","find",NA
"528","CDISC","ADaM-IG","1.1,1.2,1.3","Medium","TRTSEQAN is present and TRTSEQA is not present","presence-pair","exists(TRTSEQAN) & not_exists(TRTSEQA)","predicate","2026-04-21T09:19:57Z","find",NA
"529","CDISC","ADaM-IG","1.1,1.2,1.3","Medium","AESEVN is present and AESEV is not present","presence-pair","exists(AESEVN) & not_exists(AESEV)","predicate","2026-04-21T09:19:57Z","find",NA
"530","CDISC","ADaM-IG","1.1,1.2,1.3","Medium","ASEVN is present and ASEV is not present","presence-pair","exists(ASEVN) & not_exists(ASEV)","predicate","2026-04-21T09:19:57Z","find",NA
"532","CDISC","ADaM-IG","1.1,1.2,1.3","Medium","AERELN is present and AEREL is not present","presence-pair","exists(AERELN) & not_exists(AEREL)","predicate","2026-04-21T09:19:57Z","find",NA
"533","CDISC","ADaM-IG","1.1,1.2,1.3","Medium","ARELN is present and AREL is not present","presence-pair","exists(ARELN) & not_exists(AREL)","predicate","2026-04-21T09:19:57Z","find",NA
"535","CDISC","ADaM-IG","1.1,1.2,1.3","Medium","AETOXGRN is present and AETOXGR is not present","presence-pair","exists(AETOXGRN) & not_exists(AETOXGR)","predicate","2026-04-21T09:19:57Z","find",NA
"536","CDISC","ADaM-IG","1.1,1.2,1.3","Medium","ATOXGRN is present and ATOXGR is not present","presence-pair","exists(ATOXGRN) & not_exists(ATOXGR)","predicate","2026-04-21T09:19:57Z","find",NA
"539","CDISC","ADaM-IG","1.2,1.3","Medium","APERIODC is present and APERIOD is not present","presence-pair","exists(APERIODC) & not_exists(APERIOD)","predicate","2026-04-21T09:19:57Z","find",NA
"54","CDISC","ADaM-IG","1.0,1.1,1.2,1.3","Medium","Within ADSL there is more than one record for a unique value of USUBJID","uniqueness-composite-key","is_not_unique_set(USUBJID)","predicate","2026-04-21T20:13:13Z",NA,NA
"540","CDISC","ADaM-IG","1.1,1.2,1.3","Medium","APHASEN is present and APHASE is not present","presence-pair","exists(APHASEN) & not_exists(APHASE)","predicate","2026-04-21T09:19:57Z","find",NA
"541","CDISC","ADaM-IG","1.2,1.3","Medium","ASPERC is present and ASPER is not present","presence-pair","exists(ASPERC) & not_exists(ASPER)","predicate","2026-04-21T09:19:57Z","find",NA
"542","CDISC","ADaM-IG","1.1,1.2,1.3","Medium","ATPTN is present and ATPT is not present","presence-pair","exists(ATPTN) & not_exists(ATPT)","predicate","2026-04-21T09:19:57Z","find",NA
"548","CDISC","ADaM-IG","1.1,1.2,1.3","Medium","AVISITN is present and AVISIT is not present","presence-pair","exists(AVISITN) & not_exists(AVISIT)","predicate","2026-04-21T09:19:57Z","find",NA
"549","CDISC","ADaM-IG","1.2,1.3","Medium","BTOXGRHN is present and BTOXGRH is not present","presence-pair","exists(BTOXGRHN) & not_exists(BTOXGRH)","predicate","2026-04-21T09:19:57Z","find",NA
"55","CDISC","ADaM-IG","1.0,1.1,1.2,1.3","Medium","SUBJID is not present within ADSL","presence-required","not_exists(SUBJID)","predicate","2026-04-21T13:35:21Z",NA,NA
"550","CDISC","ADaM-IG","1.2,1.3","Medium","BTOXGRLN is present and BTOXGRL is not present","presence-pair","exists(BTOXGRLN) & not_exists(BTOXGRL)","predicate","2026-04-21T09:19:57Z","find",NA
"551","CDISC","ADaM-IG","1.1,1.2,1.3","Medium","DTHCAUSN is present and DTHCAUS is not present","presence-pair","exists(DTHCAUSN) & not_exists(DTHCAUS)","predicate","2026-04-21T09:19:57Z","find",NA
"555","CDISC","ADaM-IG","1.1,1.2,1.3","Medium","TRTAN is present and TRTA is not present","presence-pair","exists(TRTAN) & not_exists(TRTA)","predicate","2026-04-21T09:19:57Z","find",NA
"556","CDISC","ADaM-IG","1.1,1.2,1.3","Medium","TRTPN is present and TRTP is not present","presence-pair","exists(TRTPN) & not_exists(TRTP)","predicate","2026-04-21T09:19:57Z","find",NA
"559","CDISC","ADaM-IG","1.1,1.2,1.3","Medium","TRCMPGyN is present and TRCMPGy is not present","presence-pair","exists(TRCMPGyN) & not_exists(TRCMPGy)","predicate","2026-04-21T10:17:01Z","find","xx/y-indexed via expand: key"
"560","CDISC","ADaM-IG","1.2,1.3","Medium","STRATARN is present and STRATAR is not present","presence-pair","exists(STRATARN) & not_exists(STRATAR)","predicate","2026-04-21T09:19:57Z","find",NA
"562","CDISC","ADaM-IG","1.2,1.3","Medium","STRATAVN is present and STRATAV is not present","presence-pair","exists(STRATAVN) & not_exists(STRATAV)","predicate","2026-04-21T09:19:57Z","find",NA
"568","CDISC","ADaM-IG","1.1,1.2,1.3","Medium","ONTRTFN is present and ONTRTFL is not present","presence-pair","exists(ONTRTFN) & not_exists(ONTRTFL)","predicate","2026-04-21T09:19:57Z","find",NA
"569","CDISC","ADaM-IG","1.1,1.2,1.3","Medium","LVOTFN is present and LVOTFL is not present","presence-pair","exists(LVOTFN) & not_exists(LVOTFL)","predicate","2026-04-21T09:19:57Z","find",NA
"581","CDISC","ADaM-IG","1.1,1.2,1.3","Medium","None of TRTP, TRTPGy, TRTA, and TRTAGy are present and none of the character treatment variables in ADSL defined in the IG are present","adsl-treatment-presence","treatment_var_absent_across_datasets(TRTP,TRTPGy,TRTA,TRTAGy,TRTxxP,TRTxxA,ADSL)","predicate","2026-04-21T20:13:13Z",NA,NA
"582","CDISC","ADaM-IG","1.2,1.3","Medium","Within a given value of PARAMCD for a subject, BCHG is populated and is not equal to BASE-AVAL","value-arith-check","is_not_diff(BCHG,BASE,AVAL)","predicate","2026-04-21T16:38:04Z",NA,NA
"586","CDISC","ADaM-IG","1.2,1.3","Medium","Within a given value of PARAMCD for a subject, PBCHG is populated and is not equal to ((BASE-AVAL)/AVAL)*100","value-arith-check","is_not_pct_diff(PBCHG,BASE,AVAL)","predicate","2026-04-21T16:38:04Z",NA,NA
"590","CDISC","ADaM-IG","1.2,1.3","Medium","A variable is present with the same name as a variable present in ADSL but the variables do not have identical data types","adsl-var-attr-consistency","shared_attr_mismatch(type,ADSL)","predicate","2026-04-21T20:05:57Z",NA,NA
"591","CDISC","ADaM-IG","1.2,1.3","Medium","A variable is present with the same name as a variable present in ADSL but the variables do not have identical values for a given value of USUBJID","adsl-var-values-consistency","shared_values_mismatch_by_key(ADSL,USUBJID)","predicate","2026-04-21T20:31:18Z",NA,NA
"600","CDISC","ADaM-IG","1.2,1.3","Medium","On a given record, the value of ASPRSDTM is not equal to the value of variable PxxSwSDM where xx equals the value of APERIOD and w equals the value of ASPER","value-compare-subject-templated-ref","not_equal_subject_templated_ref(ASPRSDTM,ADSL,PxxSwSDM,APERIOD,ASPER)","predicate","2026-04-21T20:31:18Z",NA,NA
"603","CDISC","ADaM-IG","1.2,1.3","Medium","On a given record, the value of ASPREDTM is not equal to the value of variable PxxSwEDM where xx equals the value of APERIOD and w equals the value of ASPER","value-compare-subject-templated-ref","not_equal_subject_templated_ref(ASPREDTM,ADSL,PxxSwEDM,APERIOD,ASPER)","predicate","2026-04-21T20:31:18Z",NA,NA
"620","CDISC","ADaM-IG","1.0,1.1,1.2,1.3","Medium","AETERM is not present","presence-required","not_exists(AETERM)","predicate","2026-04-21T11:26:53Z","required",NA
"621","CDISC","ADaM-IG","1.0,1.1,1.2,1.3","Medium","TRTEMFL is not present","presence-required","not_exists(TRTEMFL)","predicate","2026-04-21T11:26:53Z","required",NA
"623","CDISC","ADaM-IG","1.0,1.1,1.2,1.3","Medium","AESEQ is not present","presence-required","not_exists(AESEQ)","predicate","2026-04-21T11:26:53Z","required",NA
"624","CDISC","ADaM-IG","1.0,1.1,1.2,1.3","Medium","AELLT is not present","presence-required","not_exists(AELLT)","predicate","2026-04-21T11:26:53Z","required",NA
"625","CDISC","ADaM-IG","1.0,1.1,1.2,1.3","Medium","AEBDSYCD is not present","presence-required","not_exists(AEBDSYCD)","predicate","2026-04-21T11:26:53Z","required",NA
"626","CDISC","ADaM-IG","1.0,1.1,1.2,1.3","Medium","AELLTCD is not present","presence-required","not_exists(AELLTCD)","predicate","2026-04-21T11:26:53Z","required",NA
"627","CDISC","ADaM-IG","1.0,1.1,1.2,1.3","Medium","AEHLT is not present","presence-required","not_exists(AEHLT)","predicate","2026-04-21T11:26:53Z","required",NA
"628","CDISC","ADaM-IG","1.0,1.1,1.2,1.3","Medium","AEHLTCD is not present","presence-required","not_exists(AEHLTCD)","predicate","2026-04-21T11:26:53Z","required",NA
"629","CDISC","ADaM-IG","1.0,1.1,1.2,1.3","Medium","AEHLGT is not present","presence-required","not_exists(AEHLGT)","predicate","2026-04-21T11:26:53Z","required",NA
"630","CDISC","ADaM-IG","1.0,1.1,1.2,1.3","Medium","AEHLGTCD is not present","presence-required","not_exists(AEHLGTCD)","predicate","2026-04-21T11:26:53Z","required",NA
"631","CDISC","ADaM-IG","1.0,1.1,1.2,1.3","Medium","AEPTCD is not present","presence-required","not_exists(AEPTCD)","predicate","2026-04-21T11:26:53Z","required",NA
"632","CDISC","ADaM-IG","1.0,1.1,1.2,1.3","Medium","AESOC is not present","presence-required","not_exists(AESOC)","predicate","2026-04-21T11:26:53Z","required",NA
"633","CDISC","ADaM-IG","1.0,1.1,1.2,1.3","Medium","AESOCCD is not present","presence-required","not_exists(AESOCCD)","predicate","2026-04-21T11:26:53Z","required",NA
"634","CDISC","ADaM-IG","1.0,1.1,1.2,1.3","Medium","AESTDTC is not present","presence-required","not_exists(AESTDTC)","predicate","2026-04-21T11:26:53Z","required",NA
"635","CDISC","ADaM-IG","1.0,1.1,1.2,1.3","Medium","ASTDT is not present","presence-required","not_exists(ASTDT)","predicate","2026-04-21T11:26:53Z","required",NA
"636","CDISC","ADaM-IG","1.0,1.1,1.2,1.3","Medium","AEENDTC is not present","presence-required","not_exists(AEENDTC)","predicate","2026-04-21T11:26:53Z","required",NA
"637","CDISC","ADaM-IG","1.0,1.1,1.2,1.3","Medium","AENDT is not present","presence-required","not_exists(AENDT)","predicate","2026-04-21T11:26:53Z","required",NA
"638","CDISC","ADaM-IG","1.0,1.1,1.2,1.3","Medium","ASTDY is not present","presence-required","not_exists(ASTDY)","predicate","2026-04-21T11:26:53Z","required",NA
"639","CDISC","ADaM-IG","1.0,1.1,1.2,1.3","Medium","AENDY is not present","presence-required","not_exists(AENDY)","predicate","2026-04-21T11:26:53Z","required",NA
"64","CDISC","ADaM-IG","1.0,1.1,1.2,1.3","Medium","TRTxxAN is present and TRTxxA is not present","presence-pair","exists(TRTxxAN) & not_exists(TRTxxA)","predicate","2026-04-21T10:17:01Z","find","xx/y-indexed via expand: key"
"655","CDISC","ADaM-IG","1.0,1.1,1.2,1.3","Medium","DOSEA is not present","presence-required","not_exists(DOSEA)","predicate","2026-04-21T11:26:53Z","required",NA
"656","CDISC","ADaM-IG","1.0,1.1,1.2,1.3","Medium","DOSEU is not present","presence-required","not_exists(DOSEU)","predicate","2026-04-21T11:26:53Z","required",NA
"657","CDISC","ADaM-IG","1.0,1.1,1.2,1.3","Medium","AVISIT is not present","presence-required","not_exists(AVISIT)","predicate","2026-04-21T11:26:53Z","required",NA
"663","CDISC","ADaM-IG","1.0,1.1,1.2,1.3","Medium","On a given record, COHORTN is populated and COHORT is not populated","value-conditional-populated","non_empty(COHORTN) & empty(COHORT)","predicate","2026-04-21T11:35:41Z","condition",NA
"665","CDISC","ADaM-IG","1.0,1.1,1.2,1.3","Medium","COHORTN is present and COHORT is not present","presence-pair","exists(COHORTN) & not_exists(COHORT)","predicate","2026-04-21T09:19:57Z","find",NA
"667","CDISC","ADaM-IG","1.0,1.1,1.2,1.3","Medium","DOSPCTDF is populated and TRTA is not populated","value-conditional-populated","non_empty(DOSPCTDF) & empty(TRTA)","predicate","2026-04-21T11:35:41Z","condition",NA
"668","CDISC","ADaM-IG","1.0,1.1,1.2,1.3","Medium","On a given record, ACYCLE is populated and ACYCLEC is not populated","value-conditional-populated","non_empty(ACYCLE) & empty(ACYCLEC)","predicate","2026-04-21T11:35:41Z","condition",NA
"670","CDISC","ADaM-IG","1.0,1.1,1.2,1.3","Medium","ACYCLEC is present and ACYCLE is not present","presence-pair","exists(ACYCLEC) & not_exists(ACYCLE)","predicate","2026-04-21T09:19:57Z","find",NA
"671","CDISC","ADaM-IG","1.0,1.1,1.2,1.3","Medium","AVALU is not present","presence-required","not_exists(AVALU)","predicate","2026-04-21T11:26:53Z","required",NA
"672","CDISC","ADaM-IG","1.3","Medium","SPDEVID is not present within ADDL","presence-required","not_exists(SPDEVID)","predicate","2026-04-21T13:35:21Z",NA,NA
"675","CDISC","ADaM-IG","1.3","Medium","On a given record, DEVGRy is populated and DEVGRyN is not populated ","value-pair-coupled","non_empty(DEVGRy) & empty(DEVGRyN)","predicate","2026-04-21T13:12:28Z",NA,NA
"676","CDISC","ADaM-IG","1.3","Medium","On a given record, DEVGRyN is populated and DEVGRy is not populated ","value-pair-coupled","non_empty(DEVGRyN) & empty(DEVGRy)","predicate","2026-04-21T13:12:28Z",NA,NA
"679","CDISC","ADaM-IG","1.3","Medium","On a given record, DEVTYGy is populated and DEVTYGyN is not populated ","value-pair-coupled","non_empty(DEVTYGy) & empty(DEVTYGyN)","predicate","2026-04-21T13:12:28Z",NA,NA
"680","CDISC","ADaM-IG","1.3","Medium","On a given record, DEVTYGyN is populated and DEVTYGy is not populated ","value-pair-coupled","non_empty(DEVTYGyN) & empty(DEVTYGy)","predicate","2026-04-21T13:12:28Z",NA,NA
"683","CDISC","ADaM-IG","1.3","Medium","On a given record, MODELGy is populated and MODELGyN is not populated ","value-pair-coupled","non_empty(MODELGy) & empty(MODELGyN)","predicate","2026-04-21T13:12:28Z",NA,NA
"684","CDISC","ADaM-IG","1.3","Medium","On a given record, MODELGyN is populated and MODELGy is not populated ","value-pair-coupled","non_empty(MODELGyN) & empty(MODELGy)","predicate","2026-04-21T13:12:28Z",NA,NA
"685","CDISC","ADaM-IG","1.3","Medium","DEVSDT is not present within ADDL","presence-required","not_exists(DEVSDT)","predicate","2026-04-21T13:35:21Z",NA,NA
"686","CDISC","ADaM-IG","1.3","Medium","DEVEDT is not present within ADDL","presence-required","not_exists(DEVEDT)","predicate","2026-04-21T13:35:21Z",NA,NA
"688","CDISC","ADaM-IG","1.3","Medium","Within ADDL there is more than one record for unique values of USUBJID and SPDEVID","uniqueness-composite-key","is_not_unique_set(USUBJID,SPDEVID)","predicate","2026-04-21T20:13:13Z",NA,NA
"689","CDISC","ADaM-IG","1.3","Medium","SPDEVID is not present within dataset","presence-required","not_exists(SPDEVID)","predicate","2026-04-21T13:35:21Z",NA,NA
"71","CDISC","ADaM-IG","1.0,1.1,1.2,1.3","Medium","ARM is not present within ADSL","presence-required","not_exists(ARM)","predicate","2026-04-21T13:35:21Z",NA,NA
"72","CDISC","ADaM-IG","1.0,1.1,1.2,1.3","Medium","TRT01P is not present within ADSL","presence-required","not_exists(TRT01P)","predicate","2026-04-21T13:35:21Z",NA,NA
"721","CDISC","ADaM-IG","1.1,1.2,1.3","Medium","There is more than one value of TRTPN for a given value of TRTP, considering only those rows on which both variables are populated","uniqueness-grouped","is_not_unique_relationship(TRTP,TRTPN)","predicate","2026-04-21T11:50:50Z","unique",NA
"722","CDISC","ADaM-IG","1.1,1.2,1.3","Medium","There is more than one value of TRTP for a given value of TRTPN, considering only those rows on which both variables are populated","uniqueness-grouped","is_not_unique_relationship(TRTPN,TRTP)","predicate","2026-04-21T11:50:50Z","unique",NA
"723","CDISC","ADaM-IG","1.1,1.2,1.3","Medium","There is more than one value of TRTAN for a given value of TRTA, considering only those rows on which both variables are populated","uniqueness-grouped","is_not_unique_relationship(TRTA,TRTAN)","predicate","2026-04-21T11:50:50Z","unique",NA
"724","CDISC","ADaM-IG","1.1,1.2,1.3","Medium","There is more than one value of TRTA for a given value of TRTAN, considering only those rows on which both variables are populated","uniqueness-grouped","is_not_unique_relationship(TRTAN,TRTA)","predicate","2026-04-21T11:50:50Z","unique",NA
"725","CDISC","ADaM-IG","1.1,1.2,1.3","Medium","There is more than one value of APERIODC for a given value of APERIOD, considering only those rows on which both variables are populated","uniqueness-grouped","is_not_unique_relationship(APERIOD,APERIODC)","predicate","2026-04-21T11:50:50Z","unique",NA
"726","CDISC","ADaM-IG","1.1,1.2,1.3","Medium","There is more than one value of APERIOD for a given value of APERIODC, considering only those rows on which both variables are populated","uniqueness-grouped","is_not_unique_relationship(APERIODC,APERIOD)","predicate","2026-04-21T11:50:50Z","unique",NA
"738","CDISC","ADaM-IG","1.1,1.2,1.3","Medium","There is more than one value of PARAM for a given value of PARAMCD, considering only those rows on which both variables are populated","uniqueness-grouped","is_not_unique_relationship(PARAMCD,PARAM)","predicate","2026-04-21T11:50:50Z","unique",NA
"739","CDISC","ADaM-IG","1.1,1.2,1.3","Medium","There is more than one value of PARAMCD for a given value of PARAM, considering only those rows on which both variables are populated","uniqueness-grouped","is_not_unique_relationship(PARAM,PARAMCD)","predicate","2026-04-21T11:50:50Z","unique",NA
"75","CDISC","ADaM-IG","1.0,1.1,1.2,1.3","Medium","TRTxxPN is present and TRTxxP is not present","presence-pair","exists(TRTxxPN) & not_exists(TRTxxP)","predicate","2026-04-21T10:17:01Z","find","xx/y-indexed via expand: key"
"752","CDISC","ADaM-IG","1.1,1.2,1.3","Medium","There is more than one value of TRTSEQP for a given value of TRTSEQPN, considering only those rows on which both variables are populated","uniqueness-grouped","is_not_unique_relationship(TRTSEQPN,TRTSEQP)","predicate","2026-04-21T11:50:50Z","unique",NA
"753","CDISC","ADaM-IG","1.1,1.2,1.3","Medium","There is more than one value of TRTSEQPN for a given value of TRTSEQP, considering only those rows on which both variables are populated","uniqueness-grouped","is_not_unique_relationship(TRTSEQP,TRTSEQPN)","predicate","2026-04-21T11:50:50Z","unique",NA
"754","CDISC","ADaM-IG","1.1,1.2,1.3","Medium","There is more than one value of TRTSEQA for a given value of TRTSEQAN, considering only those rows on which both variables are populated","uniqueness-grouped","is_not_unique_relationship(TRTSEQAN,TRTSEQA)","predicate","2026-04-21T11:50:50Z","unique",NA
"755","CDISC","ADaM-IG","1.1,1.2,1.3","Medium","There is more than one value of TRTSEQAN for a given value of TRTSEQA, considering only those rows on which both variables are populated","uniqueness-grouped","is_not_unique_relationship(TRTSEQA,TRTSEQAN)","predicate","2026-04-21T11:50:50Z","unique",NA
