id: DEFINE-179
authority: CDISC
standard: Define-XML
standard_versions: '2.1'
severity: Medium
scope:
  classes: []
  domains: []
  datasets:
  - Define_Codelist_Metadata
check:
  all:
  - name: coded_value
    operator: non_empty
outcome:
  message: CodeList[@Name]/EnumeratedItem[@CodedValue]/@CodedValue does not match
    CDISC Submission Value for CDISC Controlled Terminology with C-Code CodeList[@Name]/Alias[@Name].
  severity: Medium
provenance:
  source_document: CDISC Define-XML v2.1 Conformance Rules
  executability: predicate
  define_rule_id: 179
  license: CC-BY-4.0
  applicable_versions: 2.1 only
  source_type: Specification
  xpaths: /ODM/Study/MetaDataVersion/CodeList/EnumeratedItem
  element: EnumeratedItem
  attribute: CodedValue
  builder_dataset: Define_Codelist_Metadata
