id: '182'
authority: CDISC
standard: ADaM-IG
standard_versions:
- '1.0'
- '1.1'
- '1.2'
- '1.3'
severity: Medium
scope:
  classes: BASIC DATA STRUCTURE
  domains: []
  exclude_domains: []
variable: BTOXGR
define_element: ''
check:
  narrative: ''
  condition_success: ''
  condition_failure: BASETYPE is not present and BTOXGR is populated
outcome:
  message: BASETYPE is not present, BTOXGR is populated, and BTOXGR is not equal to
    ATOXGR where ABLFL is equal to Y for a given value of PARAMCD for a subject
  severity: Medium
provenance:
  source_document: CDISC ADaM Conformance Rules v5.0
  source_document_section: ADaMIG v1.0 3.2.5
  source_url: https://www.cdisc.org/standards/foundational/adam/adam-conformance-rules-v5-0
  cited_guidance: 'ADaMIG v1.0, Section 3.2.5, Table 3.2.5.4: ATOXGR of the baseline
    record identified by ABLFL.'
  source_version: '1'
  license: CC-BY-4.0
  executability: narrative
