id: '168'
authority: CDISC
standard: ADaM-IG
standard_versions:
- '1.0'
- '1.1'
- '1.2'
severity: Medium
scope:
  classes: BASIC DATA STRUCTURE
  domains: []
  exclude_domains: []
variable: BNRIND
define_element: ''
check:
  expand: ''
  operator: base_not_equal_abl_row
  b_var: BNRIND
  a_var: ANRIND
  group_by:
  - USUBJID
  - PARAMCD
  - BASETYPE
  basetype_gate: populated
outcome:
  message: BASETYPE is present, BNRIND is populated, and BNRIND is not equal to ANRIND
    where ABLFL is equal to Y for a given value of PARAMCD and BASETYPE
  severity: Medium
provenance:
  source_document: CDISC ADaM Conformance Rules v5.0
  source_document_section: ADaMIG v1.0 3.2.5
  source_url: https://www.cdisc.org/standards/foundational/adam/adam-conformance-rules-v5-0
  cited_guidance: 'ADaMIG v1.0, Section 3.2.5, Table 3.2.5.4: ANRIND of the baseline
    record identified by ABLFL.'
  source_version: '1'
  license: CC-BY-4.0
  executability: predicate
