id: '699'
authority: CDISC
standard: ADaM-IG
standard_versions: '1.3'
severity: Medium
scope:
  classes: MEDICAL DEVICE BASIC DATA STRUCTURE
  domains: []
  exclude_domains: []
variable: BNRIND
define_element: ''
check:
  expand: ''
  operator: base_not_equal_abl_row
  b_var: BNRIND
  a_var: ANRIND
  group_by:
  - USUBJID
  - SPDEVID
  - PARAMCD
  basetype_gate: absent
outcome:
  message: BASETYPE is not present, BNRIND is populated, and BNRIND is not equal to
    ANRIND where ABLFL is equal to Y for a given value of PARAMCD for a combination
    of device and subject
  severity: Medium
provenance:
  source_document: CDISC ADaM Conformance Rules v5.0
  source_document_section: ADaMIG-MD v1.0; ADaMIG v1.3 3.1.3; 3.3.7
  source_url: https://www.cdisc.org/standards/foundational/adam/adam-conformance-rules-v5-0
  cited_guidance: "ADaMIG-MD v1.0, Section 3.1.3: MDBDS is one record per subject
    (optional), per device, per parameter (optional: per timepoint). \n\nADaMIG v1.3,
    Section 3.3.7, Table 3.3.7.1: ANRIND of the baseline record identified by ABLFL."
  source_version: '1'
  license: CC-BY-4.0
  executability: predicate
