{
  "rule_id": "__pattern-presence-pair__",
  "fixture_type": "positive",
  "datasets": {
    "ADVS": {
      "PARAMCD": ["X", "X", "X"],
      "ARELTMU": ["", "", ""],
      "BTOXGR": ["", "", ""],
      "BNRIND": ["", "", ""],
      "ASPER": ["", "", ""],
      "BTOXGRN": ["", "", ""],
      "ATOXGRLN": ["", "", ""],
      "ATOXGRHN": ["", "", ""],
      "ABLFN": ["", "", ""],
      "TRTSEQPN": ["", "", ""],
      "TRTSEQAN": ["", "", ""],
      "AESEVN": ["", "", ""],
      "ASEVN": ["", "", ""],
      "AERELN": ["", "", ""],
      "ARELN": ["", "", ""],
      "AETOXGRN": ["", "", ""],
      "ATOXGRN": ["", "", ""],
      "APERIODC": ["", "", ""],
      "APHASEN": ["", "", ""],
      "ASPERC": ["", "", ""],
      "ATPTN": ["", "", ""],
      "AVISITN": ["", "", ""],
      "BTOXGRHN": ["", "", ""],
      "BTOXGRLN": ["", "", ""],
      "DTHCAUSN": ["", "", ""],
      "TRTAN": ["", "", ""],
      "TRTPN": ["", "", ""],
      "STRATARN": ["", "", ""],
      "STRATAVN": ["", "", ""],
      "ONTRTFN": ["", "", ""],
      "LVOTFN": ["", "", ""],
      "COHORTN": ["", "", ""],
      "ACYCLEC": ["", "", ""],
      "PROJIDN": ["", "", ""],
      "STUDYIDN": ["", "", ""],
      "SUBJTYPC": ["", "", ""],
      "USUBJIDN": ["", "", ""],
      "SUBJIDN": ["", "", ""],
      "SITEIDN": ["", "", ""],
      "FLGREASC": ["", "", ""],
      "DVIDN": ["", "", ""],
      "BLQFN": ["", "", ""],
      "ALQFN": ["", "", ""],
      "FORMN": ["", "", ""],
      "ROUTEN": ["", "", ""],
      "COHORTC": ["", "", ""],
      "RACEN": ["", "", ""],
      "SEXN": ["", "", ""],
      "COUNTRYN": ["", "", ""],
      "COUNTRYL": ["", "", ""]
    }
  },
  "expected": {
    "fires": true,
    "rows": 1
  },
  "notes": "pattern=presence-pair; 49 VAR_A cols (no VAR_B)",
  "authored": "pattern-fixture@1",
  "spec": {
    "class_map": {
      "ADVS": "BASIC DATA STRUCTURE"
    }
  }
}
